File: xy_files/Mg(Fe2O3)4.xy
# 2-theta (degrees)	Intensity
11.743	4.23404
15.5555	19.0316
16.6156	0.802086
18.1251	17.4223
20.1275	2.85557
20.6583	1.50975
20.852	4.65959
22.3702	30.4391
23.294	14.8342
23.6117	21.0585
24.0252	7.65209
25.3269	8.96286
26.4236	41.8685
26.5862	7.6888
26.9713	5.49217
28.6274	2.29678
29.3903	19.2371
30.2568	1.91576
30.6688	28.6562
31.4073	26.8878
31.9586	21.995
32.0682	36.9472
33.5939	100.0
34.7024	82.6941
34.7225	82.8609
35.1164	27.2486
35.2464	1.45177
35.3851	6.24299
35.4575	14.4162
35.7443	1.72505
36.019	1.61739
36.3441	15.2583
36.6202	0.458964
36.7247	15.65
36.9827	17.6954
36.9839	12.7887
37.5479	15.5778
37.8057	7.0929
38.7792	6.19275
39.2204	5.05039
39.2969	3.38413
39.6002	3.08281
39.6209	21.5476
39.7136	2.6018
40.09	20.4507
40.09	21.4657
40.1415	0.546685
40.9119	4.16924
41.3066	0.233759
41.3856	2.41553
41.4883	6.89472
42.0292	0.1055
42.1644	17.6259
42.4376	1.70898
44.2916	4.40605
44.5413	0.888323
44.6716	0.705443
44.9504	0.178973
45.6303	0.083812
45.655	7.29643
45.8011	13.9099
45.8167	0.609069
45.8487	0.601808
46.1137	0.183549
46.9929	0.674269
47.6273	16.2307
47.6836	0.650998
47.9068	0.829219
48.2663	4.20813
48.3082	14.4545
48.6813	3.23913
48.7085	0.682742
48.7807	0.792322
49.1336	0.465869
49.1965	26.0948
49.6286	7.86104
50.0239	0.513526
50.1804	1.30134
50.3595	30.7161
50.5855	0.726462
50.6357	6.30893
50.9628	4.8498
51.0916	31.4947
51.2742	6.59691
51.3762	0.0136556
51.6496	0.662624
51.7423	40.9753
51.8672	0.972597
51.9091	0.652598
51.9859	5.68486
52.0098	34.5243
52.4895	35.8957
52.5465	0.173287
52.7635	0.117257
53.2423	0.469247
53.3475	2.39501
53.3631	1.98069
53.7286	7.61088
53.9273	0.0824056
54.0133	0.523445
54.4007	0.33327
54.4974	0.0620001
54.5579	0.455343
54.6766	0.294041
54.75	1.31535
54.7568	0.944179
54.8255	2.93189
54.9481	0.28076
55.3945	1.92722
55.6022	0.511853
55.7192	4.53928
55.9195	0.572039
56.0606	1.25331
56.3467	2.38574
56.3984	0.601822
56.422	2.38882
56.5192	0.949185
56.6213	0.0772112
57.385	11.5508
57.3978	3.25736
57.9405	6.25412
58.116	0.411982
58.1536	0.856784
58.272	0.713331
58.4309	1.20383
58.5276	1.7154
59.1764	3.12434
59.2684	3.8279
59.7753	1.98601
59.9562	6.51237
60.1698	0.381208
60.2341	10.8124
60.248	3.53723
60.4979	2.31569
60.5884	4.78277
60.7724	36.1374
60.8118	32.1577
60.9751	8.42941
61.0171	0.358192
61.0396	0.565755
61.3265	0.366881
61.5263	4.27768
61.6982	2.55958
61.7021	1.12092
62.6826	2.46815
62.9285	34.9186
62.9473	0.733526
62.988	1.97728
63.0448	0.83006
63.2329	0.501061
63.3037	0.290738
63.319	1.83828
63.4077	0.670592
63.4528	5.59103
63.7	2.85904
63.7024	1.97913
63.7683	0.501316
63.863	0.545473
64.1269	0.272564
64.4867	2.37299
64.7255	1.36834
64.7272	3.25187
64.7314	0.641163
64.8646	0.0291335
64.9718	3.10605
65.0828	0.644648
65.4902	5.45916
65.5477	0.23212
65.5721	0.667396
65.5973	0.449191
65.762	0.431198
65.819	0.281285
66.121	4.99613
66.3946	0.352038
66.4775	0.774837
66.5926	0.668429
66.6011	0.00469517
66.8137	5.65943
67.0663	0.166233
67.3753	2.66753
67.4008	7.81365
67.5304	0.373978
67.6331	1.34216
68.0798	0.226495
68.0916	6.99264
68.2041	0.204285
68.269	1.24976
68.2691	0.645445
68.3537	1.12205
68.4256	4.46529
68.6398	0.422849
68.6771	0.27268
68.8228	0.149534
68.9202	0.952778
68.9208	2.25329
69.0263	1.9492
69.2839	0.426366
69.2961	0.933189
69.321	1.6912
70.3529	2.52484
70.4156	0.00961388
70.6147	5.67531
70.7054	0.505215
70.7071	0.247504
70.9813	4.24974
71.1738	0.971667
71.2871	4.52504
71.4914	1.98407
71.7474	0.860437
72.0192	2.59746
72.0251	0.233807
72.0731	0.0390727
72.27	0.868961
72.3229	0.832043
72.4662	2.22443
72.7569	3.29925
72.7649	0.00230894
72.8195	3.41981
72.9268	0.794352
73.1182	0.352133
73.2329	9.90826
73.2808	7.93173
73.3818	0.676776
73.574	2.84979
74.1505	1.75121
74.1882	0.784346
74.2202	0.249303
74.261	0.46958
74.3383	0.258218
74.5313	2.73371
74.5505	4.09355
74.5637	2.80548
74.6668	0.171881
74.7323	1.0736
74.8282	3.8607
74.8638	0.697674
74.9082	0.0806064
75.0376	2.57251
75.0766	0.666616
75.1852	3.08612
75.3523	3.26883
75.3691	0.590211
75.4717	0.102294
75.7279	2.16813
75.763	0.348928
75.8502	1.36572
75.9185	1.41257
76.0032	2.80038
76.1014	0.0179129
76.2639	0.194632
76.3915	0.0472906
76.4424	0.123128
76.4531	0.0452342
76.5842	0.577066
76.648	1.68682
76.7333	0.131921
76.7862	0.43935
76.9096	0.540328
77.0836	0.170559
77.18	0.0208945
77.2549	0.0754236
77.2733	0.0793475
77.524	1.2061
77.5451	0.0243527
77.6163	0.766615
77.6463	0.15201
77.7702	3.05539
77.8214	0.0103751
77.8239	0.0757167
77.8525	0.236914
78.0365	0.0076459
78.056	3.17513
78.1079	2.8778
78.29	0.148931
78.3449	0.235357
78.3825	0.823863
78.6913	0.114692
78.7248	0.385476
78.7381	0.219919
78.7395	3.30618
78.7425	3.57698
78.7502	0.932461
79.1337	3.12332
79.4389	1.14815
79.5333	0.44499
80.0705	0.0681493
80.1321	3.41699
80.2438	1.82209
80.3182	0.0649368
80.3769	0.0259945
80.6235	0.00183982
80.641	0.858961
80.6613	0.174882
80.7712	2.6351
81.4387	0.832421
81.6427	0.14071
81.6786	1.46815
82.0899	0.563131
82.0926	1.25075
82.2451	0.00886323
82.2958	1.33681
82.5125	0.616004
82.5288	0.0711565
82.6996	1.86474
82.8092	1.17228
82.8666	0.100164
83.1602	1.28583
83.2083	3.8944
83.3309	0.615366
83.4565	1.81382
84.086	1.48156
84.1197	1.40834
84.3254	4.19262
84.3269	0.62888
84.4782	0.617674
84.5201	8.13474
84.759	1.40712
84.8384	0.124095
84.8904	0.46219
84.9821	0.427964
85.1657	1.02044
85.294	0.435354
85.3469	6.83576
85.3606	0.585059
85.3995	0.153691
85.415	0.214197
85.4167	0.244205
85.4666	0.295843
85.4858	0.17682
85.4956	1.71486
85.5845	0.0164097
85.5949	0.658918
85.5984	0.846615
85.627	0.0653986
85.6597	1.21044
85.9617	0.525185
86.1394	0.163033
86.2645	1.37577
86.3171	2.39371
86.5524	5.63378
86.5525	2.06849
86.5743	0.326957
86.6657	1.84915
86.6854	0.126803
86.7294	0.0656557
87.1653	0.0774104
87.1834	0.304881
87.2282	0.0673773
87.4767	2.2613
87.7192	0.425111
87.738	0.00253318
87.8756	0.0678761
88.2518	0.825904
88.3793	0.323216
88.3943	0.202465
88.4598	2.19572
88.6446	0.256921
88.6895	0.351474
88.7906	0.111469
88.8934	0.139201
88.9598	0.567535
89.0476	0.881932
89.1417	0.199038
89.4378	0.133404
89.5208	0.386483
89.576	4.53021
89.6229	0.165832
89.7276	0.526724
89.9364	0.66342
89.9655	0.377467
89.9847	0.596218