File: xy_files/Mg(FeO2)8.xy
# 2-theta (degrees)	Intensity
8.27106	0.0668551
8.35892	3.3122
11.7046	100.0
11.8344	98.9076
16.5856	48.7213
16.7627	76.5078
18.5163	0.4909
18.636	0.0022023
18.6823	1.55285
18.8009	0.0170623
23.5337	6.70804
23.7974	7.70957
24.9892	0.125833
25.2586	0.300095
26.3038	5.0517
26.4824	22.7272
26.5323	25.9144
26.7095	6.78603
30.0853	1.79417
30.2118	2.61465
30.2768	0.151628
30.4006	2.61956
30.5259	0.186311
31.4387	0.0809682
31.4631	0.407686
32.5624	0.782593
32.6115	0.00194509
33.532	16.1009
33.8983	6.30992
34.5251	0.139293
34.7114	1.62223
34.7151	0.0699765
34.8042	0.167567
34.8599	5.1184
35.0447	0.402382
35.6239	15.5234
35.7246	31.4285
35.7898	13.573
35.8152	15.9195
35.8802	25.0691
36.0309	10.4318
37.5396	1.60387
37.7891	3.69799
37.8857	2.58584
38.1333	0.228444
38.7005	0.252842
38.8695	0.978757
39.6473	11.7864
39.8262	7.6784
40.5308	0.48245
40.6528	0.481185
40.687	0.584522
40.8086	3.8171
42.2055	0.0508618
42.2716	1.5319
42.3377	0.466355
42.6761	0.0974714
42.7417	5.17025
42.8072	0.683472
43.072	1.85175
43.2074	0.908555
43.2654	3.7044
43.3001	0.0215528
43.4389	0.181133
43.5167	7.86934
43.5312	0.156953
43.7085	0.0151949
45.5905	0.312479
45.799	0.0408139
45.9599	0.366942
45.9629	0.452898
46.0819	0.434468
46.3299	0.390725
46.5692	7.74541
46.7148	23.4991
46.8311	15.3845
46.9761	17.3654
47.4326	0.0125237
47.7552	0.318903
48.1408	0.493102
48.7069	0.325114
48.9641	0.0147348
49.1659	0.118817
49.2442	0.325872
49.4452	1.26901
49.6225	0.00394944
49.8889	0.968643
50.1417	0.515595
50.406	0.458853
51.2775	11.8931
51.8614	11.2096
51.9527	0.0889987
52.1541	0.0955119
52.5153	0.226078
52.7151	0.346954
52.8186	0.657518
52.8744	1.06981
52.9302	1.05958
53.2162	0.594614
53.2718	3.69619
53.3272	0.0527754
53.5518	0.308597
53.7161	0.421268
53.93	0.678921
54.0935	0.622245
54.1385	3.57031
54.5294	0.311747
54.6386	0.022014
54.9275	0.0020739
55.0271	1.82876
55.0671	0.00233301
55.5717	0.0565127
55.71	7.93367
55.7102	0.136097
56.0298	20.4913
56.0324	9.41543
56.3509	10.1973
57.7173	0.0564431
57.9336	2.0232
58.1221	0.0271818
58.432	0.871984
58.6815	0.0203622
59.2415	1.32256
59.4778	1.45285
59.7024	1.30448
59.9376	0.103834
60.6377	0.20236
60.7154	0.351133
61.2281	0.631353
61.2385	0.130088
61.3042	0.126761
61.3204	0.853861
61.3496	1.78612
61.4392	3.08688
61.5012	0.0828838
61.8261	1.17529
61.9216	1.18797
62.0061	0.129515
62.0558	0.259534
62.1314	0.0291187
62.5405	0.0110917
62.8265	1.21787
62.9737	12.5529
63.1876	0.0933545
63.2541	0.680609
63.293	1.46248
63.5383	0.221424
63.648	0.378059
63.6549	0.0256162
63.7473	2.7392
63.8264	0.0203427
64.0101	17.5444
64.1009	1.37434
64.1372	2.85773
64.2386	0.69281
64.3034	1.73528
64.3328	1.74735
64.5975	6.02151
64.724	7.50336
65.6196	1.76988
65.6753	2.83861
66.2572	0.0214662
66.315	0.0699251
66.3566	0.00137255
66.4486	1.92281
66.5657	0.146843
67.0018	0.0275042
67.0535	0.679746
67.0839	0.00400134
67.4558	0.610721
67.6043	0.467305
68.2088	0.56945
68.3228	0.667568
68.4755	0.417883
68.6257	0.276776
68.8515	0.0114882
68.9741	0.0292297
69.2721	0.0690216
69.3266	1.1256
69.4603	0.575946
69.4759	0.24521
69.5451	2.3635
69.5688	2.72247
69.6535	0.771075
69.8228	0.611485
69.8939	0.692396
69.9363	0.0335355
70.0201	0.194288
70.4695	0.0354917
70.4713	0.274487
70.597	0.827726
70.6677	0.155279
70.9237	0.355227
71.0513	0.454104
71.2259	0.0691281
71.3198	0.752219
71.33	1.0331
71.3565	0.258292
71.3668	0.745408
71.4235	0.346399
71.524	0.406726
71.5909	0.0354772
71.659	0.809135
71.706	0.396433
71.7216	0.324251
71.8465	0.619531
71.989	3.53311
72.049	2.36483
72.0692	0.0404568
72.1471	0.442818
72.2604	2.43717
72.649	0.569725
72.8118	0.00826899
73.2545	0.790755
73.2631	2.62083
73.4753	1.04384
73.6081	0.336401
73.8426	0.0416858
73.9528	0.300436
74.0409	0.881093
74.049	0.0390265
74.151	0.0960678
74.4989	3.55383
74.7416	0.025701
74.746	2.8073
75.2678	0.0438513
75.317	0.349448
75.4379	0.801641
75.6803	0.531878
75.8376	0.560468
75.8417	0.0107197
75.8628	0.760009
75.8988	0.508756
76.0559	0.129673
76.4202	2.42223
76.517	0.297765
76.536	0.872026
76.5824	0.855076
76.6736	2.17953
76.8172	0.27699
76.8493	0.452805
77.2345	1.14543
77.4866	0.00462961
77.4882	0.00577356
77.6313	0.200059
77.7988	0.626826
78.5853	0.01946
78.7471	0.0238799
78.7924	0.423732
78.8378	0.142747
79.0223	1.25026
79.0708	0.019315
79.0978	1.8124
79.1161	1.35237
79.1613	0.225767
79.3133	0.749546
79.345	0.271576
79.4137	0.270763
79.4491	0.523292
79.4796	0.867172
79.6551	1.91041
79.7763	0.886808
79.7896	0.00237815
79.9119	0.0772641
80.1116	0.15943
80.1269	0.531268
80.202	2.83711
80.7301	0.261585
80.939	0.0419516
80.9702	0.00463592
81.1307	0.0992442
81.2733	0.0488887
81.3985	0.0984608
81.4007	0.125612
81.4345	0.0225715
81.5873	0.402585
81.616	0.364451
81.6683	0.140119
81.6753	1.14894
81.9798	0.00814762
82.0438	0.209464
82.4611	1.23482
82.7013	0.0323828
83.0097	0.223925
83.157	0.402105
83.2466	0.160644
83.3947	0.0218053
83.4129	0.123266
83.4362	0.179469
83.6365	0.283124
83.809	0.233769
84.1414	0.163755
84.3373	0.467596
84.3647	0.0328769
84.4475	0.129463
84.5114	0.283795
84.5307	0.477129
84.532	0.237835
84.6201	0.0178122
84.7361	0.212834
84.7724	0.0805002
85.1492	0.0393955
85.3961	0.00171218
85.4144	4.61397
85.5282	0.236277
85.7019	0.527224
85.8732	4.3414
85.9452	0.0340754
86.0944	1.55705
86.1044	0.0295175
86.3909	0.0802602
86.55	0.129291
86.5894	0.0134839
86.8104	1.66897
87.0109	0.968882
87.0857	0.362707
87.6945	1.56663
87.7263	0.759817
87.9754	0.0134883
88.0124	0.149208
88.1014	0.00956569
88.4191	0.868564
88.4519	0.00275615
88.5855	0.00197877
88.7918	0.0790881
88.8226	0.294352
88.867	0.0308872
88.9814	0.065749
89.2815	0.325134
89.4326	0.335336
89.5197	0.0421667
89.8211	0.00433168