File: xy_files/Mg10FeO11.xy
# 2-theta (degrees)	Intensity
13.9937	0.00145015
14.0977	6.42883
14.4873	6.44695
16.3344	4.64073
16.4148	0.00146311
17.6239	0.00140763
18.0162	4.03546
19.2699	3.3687
20.243	2.9439
21.637	0.00241317
22.0808	0.00185294
22.6892	0.00255613
23.3609	2.20849
23.5756	2.14436
24.5378	1.87989
24.8549	0.00121754
25.3822	1.8013
25.42	1.75997
26.5724	1.61801
27.0218	1.5291
27.6502	1.42814
28.4146	1.35053
29.1455	1.3559
29.2129	1.2816
29.5191	0.00135
29.6587	1.18952
30.0874	1.25068
31.5958	1.18363
33.0131	1.04224
33.5002	0.00190093
33.7033	0.00319902
33.7118	0.902186
34.0439	0.00243633
34.0486	0.00154539
34.2708	0.00116201
34.3793	0.916775
34.4494	0.0011988
34.4919	0.00142224
34.7462	0.792967
34.7888	0.00219238
35.16	0.986106
35.3965	0.872306
35.6837	0.00241742
35.9598	0.00181868
36.0481	0.75915
36.0678	0.00190619
36.0893	0.00146223
36.411	11.7352
36.4258	11.7181
36.4338	11.7178
36.452	11.6982
36.4981	0.787934
36.909	0.686074
36.9243	0.00229054
37.2756	0.766393
37.4427	0.00243545
37.5935	0.00239587
38.0415	0.00225092
38.8899	0.731323
39.1001	0.00175148
39.1134	0.58115
39.2244	0.680927
39.2696	0.546598
39.4046	0.00231477
39.4342	0.0021948
39.6707	0.00141404
40.2911	0.00155929
40.3774	0.709994
40.8559	0.575451
41.0516	0.564042
41.0567	0.00100167
41.0771	0.00114118
41.1548	0.566241
41.5244	0.572537
41.5512	0.53783
41.878	0.00110324
42.2594	100.0
42.2869	0.00133141
42.3364	99.4364
42.3542	99.3054
42.486	0.50571
42.837	0.00121547
42.9412	0.45136
43.0249	0.492694
43.2027	0.488864
43.3112	0.493165
43.5085	0.00103548
43.7252	0.578409
43.7408	0.373052
44.3526	0.00115305
44.3867	0.527663
44.4529	0.413867
44.498	0.44175
44.6842	0.00100722
45.4548	0.418695
45.8907	0.373635
46.4287	0.0013103
46.6353	0.00121543
46.7315	0.447926
46.7982	0.260655
46.8766	0.438298
47.1966	0.382915
47.3228	0.00119499
47.5625	0.254203
47.7705	0.332156
48.2011	0.241418
48.2186	0.318746
48.2307	0.35458
48.5617	0.184863
48.6694	0.343276
50.0359	0.316856
50.3014	0.357917
50.4235	0.184421
50.4518	0.290057
50.5028	0.166633
50.6548	0.296199
50.7664	0.293038
51.1151	0.259189
51.2049	0.00106723
51.301	0.299218
51.6575	0.143741
51.7529	0.190378
52.1298	0.154098
52.2119	0.298055
52.4136	0.264174
52.6623	0.00103705
52.6624	0.158691
52.7117	0.304631
53.0003	0.26998
53.0345	0.170564
53.1362	0.0010165
53.8154	0.28825
53.8245	0.179173
54.4965	0.187245
54.5249	0.253415
54.5402	0.114931
54.7194	0.00139702
54.7266	0.156112
55.074	0.115959
55.3742	0.131787
55.5674	0.13906
55.7134	0.145946
55.9943	0.253111
56.0324	0.128647
56.0408	0.132343
56.2542	0.00111712
56.8156	0.135355
57.0991	0.137309
57.1429	0.228729
57.1766	0.223503
57.2192	0.146281
57.2355	0.120475
57.2742	0.135638
57.315	0.133734
57.4111	0.128687
57.45	0.0010943
57.7084	0.125604
57.8098	0.188574
58.0047	0.146854
58.321	0.230942
58.3866	0.124168
58.7088	0.00116533
58.7945	0.129903
59.0114	0.144811
59.2708	0.109091
59.4081	0.00131618
59.5265	0.00102188
59.5688	0.135649
59.63	0.0015651
60.2577	0.119423
60.2793	0.117663
60.3713	0.151465
60.4262	0.128471
60.5774	0.133266
60.6229	0.103164
60.7009	0.135315
60.9046	0.0937324
60.9794	0.193092
61.1712	0.00107155
61.3264	28.1339
61.3509	28.0952
61.3927	28.0412
61.3956	28.0388
61.4299	27.9779
61.4346	27.9766
61.4474	0.191766
61.5211	0.153666
61.5457	0.127623
61.5785	0.108403
61.8073	0.211494
61.9986	0.107631
62.2348	0.116448
62.3516	0.114864
62.5454	0.103453
63.0543	0.100662
63.0946	0.112738
63.4322	0.170053
63.487	0.102801
63.5507	0.0951838
63.6341	0.0914451
63.7375	0.119562
63.7819	0.11046
64.0115	0.149325
64.1099	0.0961407
64.2418	0.00113992
64.246	0.00126244
64.5507	0.1292
64.6264	0.103961
65.0355	0.0885571
65.1863	0.106065
65.3876	0.0994906
65.6705	0.100432
65.9797	0.101474
66.2622	0.0936556
66.4022	0.0916767
66.4153	0.117159
66.4501	0.0770224
66.6663	0.074909
66.8807	0.109894
67.4983	0.0693863
67.8162	0.00101207
67.8641	0.0968322
67.9805	0.0994
68.3529	0.0835923
69.2567	0.0835581
69.3444	0.0489443
69.4184	0.102265
69.4953	0.0995522
69.5921	0.0860611
69.6439	0.10403
69.6594	0.0889104
69.9398	0.0535044
70.1028	0.091694
70.104	0.0823462
70.3412	0.0439344
70.3615	0.0821963
70.4048	0.0846467
70.4377	0.0599713
70.491	0.0788555
70.8914	0.0841342
70.9543	0.0932137
71.1162	0.078243
71.1552	0.0926345
71.237	0.0742271
72.1912	0.0370077
72.1947	0.076573
72.2908	0.0635165
72.4661	0.0753568
72.4955	0.0879971
72.5353	0.094455
72.5514	0.0690393
72.698	0.062081
72.8278	0.0414687
73.2252	0.0383017
73.3251	0.0995941
73.3372	0.0823961
73.416	2.32422
73.4456	2.31936
73.4604	2.32017
73.4922	2.31521
73.5354	2.30998
73.5424	2.30849
73.5578	0.0799686
73.5654	2.31086
73.5773	2.30966
73.5777	2.30605
73.5912	2.30428
73.5928	2.30613
73.6112	2.30462
73.7327	0.0827056
73.7365	0.0717107
74.0099	0.0811552
74.3246	0.0768636
74.6079	0.0708155
74.7976	0.0772245
74.8912	0.035811
75.0246	0.0420017
75.091	0.0524835
75.1093	0.0735911
75.1232	0.0718426
75.2312	0.0785261
75.4572	0.0766121
75.5796	0.0494317
75.5936	0.0490437
75.6633	0.0804269
75.6973	0.0657743
76.0057	0.0763514
76.1517	0.0722416
76.203	0.0676477
76.4617	0.0420399
76.6915	0.0635573
76.8816	0.0366815
77.0121	0.076406
77.1376	0.0622792
77.3427	12.6933
77.3786	12.6782
77.3981	12.6676
77.4425	12.6537
77.5547	0.0644377
77.6511	0.0790513
77.7683	0.0341619
77.9187	0.0393355
78.1662	0.0544584
78.1769	0.0745756
78.1808	0.0587691
78.3624	0.0392737
78.5588	0.0662196
78.9322	0.0509115
79.1315	0.0693269
79.1897	0.036498
79.2114	0.043678
79.3594	0.0697475
79.4598	0.0667896
79.5235	0.0681136
79.7052	0.0335623
80.2021	0.0667819
80.2514	0.064796
80.6503	0.0373496
80.6863	0.0710273
80.7161	0.0617239
80.8124	0.0465329
80.8185	0.0537163
80.8506	0.0604553
80.9468	0.0509187
81.0373	0.0637475
81.1287	0.0292628
81.1491	0.0887589
81.1972	0.0403898
81.5937	0.0364551
81.6358	0.0701804
82.161	0.0447749
82.1828	0.060837
82.1932	0.0514239
82.2532	0.0616149
82.2625	0.040287
82.3806	0.0718566
82.4601	0.0712119
82.6072	0.0388705
82.7006	0.0638988
82.7278	0.0574033
83.3248	0.0658386
83.3468	0.0685268
83.4879	0.0616254
83.5098	0.0699538
83.6212	0.0428399
83.8001	0.0760661
83.8294	0.0533028
84.0538	0.0417202
84.3357	0.0584571
84.4485	0.0526359
84.4505	0.0404308
84.5513	0.0348156
84.8276	0.0416185
85.0272	0.0375182
85.1526	0.0661777
85.8015	0.0386943
85.8246	0.0569208
86.0881	0.0408504
86.092	0.0565024
86.0975	0.0610286
86.1469	0.0650737
86.155	0.04921
86.1867	0.0622611
86.1875	0.0719263
86.2693	0.0416389
86.2941	0.0398874
86.3357	0.0536809
86.3369	0.0505686
86.3872	0.0376886
86.4292	0.0540543
86.6479	0.0820231
86.7439	0.056611
86.9714	0.0782581
87.0937	0.0391249
87.1144	0.0680488
87.128	0.0598925
87.1583	0.0379672
87.1725	0.0550265
87.296	0.0699691
87.4943	0.0587129
87.8853	0.0595951
88.0145	0.0603294
88.1644	0.03791
88.189	0.0419278
88.5428	0.0576238
88.783	0.0614731
88.865	0.0525734
88.9973	0.0595551
89.056	0.0448004
89.1201	0.0478312
89.1223	0.0484456
89.2404	0.0514266
89.3276	0.0583694
89.6552	0.0724162
89.8474	0.0280217
89.8886	0.0520291
89.9223	0.0671347