File: xy_files/Mg2Mn3O7.xy
# 2-theta (degrees)	Intensity
12.931	13.6911
15.0082	4.92039
15.6339	7.57619
15.7619	5.30024
17.1348	2.22156
18.0738	2.9543
20.5808	18.7532
22.8378	0.755667
23.1216	0.0405204
23.2692	1.49264
23.8767	71.6491
25.8226	2.12779
26.0305	0.198314
26.168	1.1786
26.8302	45.6692
28.1233	10.3473
28.6602	6.40042
29.4276	1.50895
30.126	5.20006
30.2818	0.289596
30.3324	3.01198
30.3908	2.53113
31.5686	7.49828
31.8323	9.02062
32.1503	1.33888
32.7405	2.77512
33.6464	100.0
34.1095	0.00315536
34.1613	0.568971
34.3482	32.2389
34.6686	8.80651
34.8441	0.16177
35.6691	0.396381
35.672	1.2663
35.7093	0.00274466
36.5505	1.82021
36.5574	4.8993
36.6179	1.54462
36.9624	3.58875
37.0585	2.79076
37.3961	1.44318
37.6231	0.245922
37.7477	1.26066
37.938	1.17791
38.9526	2.17698
39.4877	0.307381
39.9561	0.654624
40.1906	7.33241
40.3513	0.117472
40.46	0.0759103
40.9298	1.43063
40.9696	0.518955
41.0568	9.14364
41.47	7.51272
41.8658	1.54163
41.9628	0.060515
42.6016	4.84176
42.8405	1.83524
42.9795	46.7039
43.1107	1.05764
43.7155	0.857871
45.1546	0.760216
45.165	0.0285641
45.1787	0.440438
45.5441	7.58374
45.9263	2.93666
46.132	0.130757
46.3394	3.72562
46.3872	2.23161
46.6519	0.180353
46.9832	2.55892
47.0257	1.08298
47.0896	0.544926
47.2584	0.00441698
47.3235	1.40687
47.5741	0.629399
47.6427	0.120588
47.6689	0.271264
47.7752	44.0304
48.0202	0.0306362
48.0748	16.7218
48.1616	0.151962
48.3072	0.104933
48.3242	5.43241
48.5787	1.01026
48.6193	11.6095
48.7756	0.0752611
48.8557	1.45637
48.8772	3.94281
48.972	0.0153337
49.0973	0.46094
49.1652	0.908486
49.2114	1.70626
49.6383	3.45914
49.7151	0.0109975
50.2328	0.00356239
50.2818	0.149177
50.6432	11.9575
50.7461	1.00247
51.0142	0.224503
51.0982	0.868086
51.8482	0.611382
51.8803	1.25918
52.0181	0.670885
52.3334	0.376696
52.6688	0.00661417
52.9846	5.46235
53.088	0.135564
53.0924	1.43584
53.5413	0.0414198
53.8416	1.56265
53.902	0.00927102
53.9335	0.0319502
53.9551	0.00775715
54.0017	3.45301
54.9495	0.83217
54.9908	2.09877
55.2922	4.45506
55.3251	0.335181
55.7227	0.131321
55.8647	0.105958
56.0034	0.00312697
56.2258	0.00209715
56.2324	0.0941041
56.3812	0.290473
56.3832	0.508813
56.4859	0.0510464
56.6548	1.76911
56.7134	0.23925
57.6916	0.0318236
57.7996	0.0160571
58.147	16.0004
58.2337	0.032856
58.684	0.0678704
58.9128	1.83657
58.9388	2.39998
58.9568	0.323601
59.3417	0.00138235
59.3822	0.0489725
59.395	0.35016
59.5664	0.00152678
59.5729	0.0330953
59.628	0.131521
59.7285	0.134037
59.9085	0.614822
59.9833	0.034083
60.1373	0.553428
60.7154	0.712265
60.7631	0.802524
60.8216	0.0395807
60.8645	7.23484
60.9636	0.37179
61.0589	0.447976
61.2108	0.0410179
61.3832	0.521529
61.5157	0.350989
61.7934	0.214735
61.8561	0.00289009
61.8698	0.0207525
62.4465	0.00219273
62.4527	0.00153836
62.4574	0.0422234
62.4958	0.860047
62.4991	0.564979
62.5909	2.1251
62.6325	0.308981
62.6644	17.3241
62.7567	0.468061
62.8642	15.9698
62.9851	0.392487
63.0085	0.0439814
63.0996	0.407918
63.17	0.0152807
63.1737	0.154832
63.232	0.0278738
63.3514	0.00490897
63.368	0.312528
63.4893	3.396
63.4951	0.0921783
63.5419	0.0733946
63.8168	0.0680555
64.06	0.188435
64.2279	0.0407622
64.3906	0.546763
64.4815	1.05393
64.624	0.0231478
64.6745	1.34091
64.8073	0.9578
64.8115	0.00764679
65.1557	0.0143064
65.2318	0.347932
65.2374	4.22451
65.8417	0.357098
65.9172	1.02435
66.06	0.251442
66.1335	2.60989
66.2288	0.372649
66.3108	1.59864
66.4415	6.55116
66.5229	0.00778158
66.5642	0.348397
66.7052	0.382495
67.0445	0.249391
67.095	0.0814571
67.1646	0.224124
67.2288	10.2287
67.2557	0.0899158
68.117	0.0180378
68.219	0.0153061
68.3179	0.836534
68.3846	0.122886
68.5306	0.0996964
68.5866	0.367298
68.6222	0.145124
68.7725	0.281481
68.7757	0.143695
69.6581	12.2136
69.8301	0.191054
69.9166	1.46901
70.0389	0.292279
70.0443	0.0312292
70.0911	0.0178521
70.1463	0.0859286
70.5203	0.444411
70.5682	2.09344
70.7377	9.58044
71.0523	0.602995
71.6056	0.0113914
71.8281	0.00778418
71.8916	1.43323
71.9505	0.00121988
72.1149	0.00146695
72.1311	0.484268
72.3529	1.87392
72.3867	0.130934
72.3925	1.69781
72.5059	0.129321
72.5201	0.0961218
72.5514	0.199859
72.6363	1.00906
72.8745	0.00628277
72.9494	0.0786653
73.1526	0.0057789
73.1928	0.149824
73.3393	2.59692
73.4899	0.364865
73.5703	0.227455
73.6424	0.082573
73.6918	0.0313796
73.697	2.89408
73.7566	0.00823221
73.8856	0.106715
73.8931	5.22803
73.9152	0.130652
74.0896	0.0266173
74.0974	0.00543856
74.3694	0.477798
74.4479	0.0327222
74.4587	0.0210461
74.5379	0.133763
74.5507	0.018427
74.5509	1.15922
74.6639	0.306256
74.7524	0.0140155
74.7955	0.252944
74.8571	7.83876
74.9083	1.15683
75.0709	0.505
75.0838	0.0702401
75.5123	3.02308
75.5465	0.423128
75.5535	0.129301
75.6047	0.0386466
75.6435	0.200324
75.671	0.233351
75.6981	0.219569
75.9991	0.554045
76.1317	0.53431
76.1632	0.00306746
76.2109	0.219728
76.2406	0.0119591
76.6316	0.0617581
76.7166	1.35292
76.7804	0.00181845
76.8133	0.01711
77.1415	0.0047649
77.5009	0.00842937
77.5192	0.0625845
77.5413	1.10149
77.6824	0.214403
77.6994	0.107478
77.8468	0.109747
77.9553	0.00180171
78.5285	0.417238
78.6672	0.0658656
78.6897	1.26882
78.7276	0.131275
78.9255	0.00767589
78.9295	0.146618
79.1107	0.247917
79.1329	0.151559
79.3346	0.0693051
79.378	0.00214353
79.3881	0.171323
79.3938	0.156336
79.3954	0.319869
79.6965	0.116528
79.757	0.353415
79.7911	0.07202
79.9601	0.122079
79.9967	0.474687
80.1508	6.06776
80.1648	0.174829
80.2338	0.00296785
80.3183	0.400578
80.5294	0.0734773
80.5746	1.30547
80.6274	0.0647772
80.803	0.243026
81.0763	0.267804
81.1003	0.24873
81.1788	0.250212
81.4163	0.0134794
81.5106	0.0237471
81.5341	0.262553
81.5671	0.00395237
81.7169	0.027857
81.7587	0.0847353
81.8568	0.275707
81.9462	0.0881615
81.9627	0.605509
81.9765	0.00654144
82.0046	0.0397336
82.1098	0.00563427
82.2977	0.620174
82.33	0.225496
83.0038	0.0921681
83.1237	0.0266335
83.1253	0.356669
83.1927	0.0137043
83.3154	0.042562
83.367	0.0266851
83.4457	0.0230803
83.5209	1.40937
83.6463	0.219541
83.9247	0.372827
84.0892	2.02393
84.1666	0.0785208
84.1846	0.00401853
84.2338	0.00196153
84.3194	0.00764849
84.6378	0.0373952
84.7542	6.36647
85.0063	0.80594
85.0177	1.71051
85.1173	0.132499
85.5526	0.0993429
85.5607	0.180636
85.6937	0.0212949
85.8662	0.00625793
86.0138	0.0253074
86.2074	0.136354
86.4781	0.0296474
86.5617	0.00900197
86.5693	0.021929
86.7355	0.0893862
86.7992	0.120989
86.8122	3.99201
86.9245	0.0363877
86.9558	0.00231638
86.9826	0.00528305
87.183	0.348498
87.2285	0.044739
87.2962	0.00755816
87.3846	0.0354778
87.3947	2.41806
87.5104	0.0363734
87.5905	1.12283
87.5972	0.0270038
87.6826	0.0218978
87.8042	0.0181877
87.8318	0.00655171
88.0612	0.122524
88.0769	0.0660072
88.1633	1.37792
88.216	2.52843
88.2308	0.11877
88.254	0.0143736
88.3533	0.778535
88.5316	0.398701
88.5787	0.343968
88.7365	0.229245
88.8153	0.0480614
88.8375	0.0210048
88.8408	0.513571
88.8457	0.719807
88.8763	0.0594037
89.0584	0.191416
89.0697	1.52188
89.1031	0.293925
89.1278	0.0376071
89.2188	0.430164
89.2301	0.110618
89.2831	2.94037
89.3414	0.0216238
89.3777	0.0189731
89.5722	0.0202085
89.5972	0.152317
89.7392	2.39607
89.8846	0.0139831