File: xy_files/MgFeO2.xy
# 2-theta (degrees)	Intensity
10.5526	3.79832
10.6762	0.284705
14.6454	100.0
15.4108	17.2877
21.1959	22.2554
21.4464	48.0215
23.2918	0.238489
23.4639	64.0357
24.276	36.5209
24.4416	0.00298104
29.5371	68.4107
30.9272	3.58075
30.9612	1.0479
31.0197	13.7581
31.0614	0.00551954
31.1095	10.9556
32.0283	66.8184
32.4127	4.18368
33.3141	36.8985
33.6444	0.474376
34.3831	2.15778
34.391	2.29894
34.4909	0.0425716
34.5095	0.00872538
34.5333	25.4957
34.6501	30.3985
34.7043	48.8049
34.7564	62.1867
34.7608	18.8404
34.8056	2.75554
37.5196	49.5795
37.6057	2.29182
37.9137	0.0851092
38.0986	29.1588
38.2371	1.64875
38.3412	1.80211
39.8116	2.73726
39.9891	1.88699
40.6451	0.679021
40.7916	9.93309
40.9202	0.599872
40.9347	56.4402
41.0215	3.15056
41.1729	3.64412
41.2823	2.99766
41.327	6.11214
43.1641	0.0333797
43.2448	3.25049
43.3783	16.3222
43.4089	0.0543978
43.4794	4.24789
43.6941	1.57716
44.0268	0.473514
44.3118	66.2491
44.4599	0.478575
44.4671	4.05233
44.5161	1.18963
44.5648	15.0133
44.9614	0.553053
45.1575	1.20741
45.6373	0.209975
47.4364	1.13547
47.6225	0.197302
47.9913	23.3633
48.4336	5.72435
48.5505	0.157738
48.8153	9.13232
48.9938	0.249732
49.2626	7.95922
49.2698	0.944455
49.2725	1.92914
49.4551	0.574953
49.701	3.75351
49.7366	15.0288
49.745	5.7052
50.0579	6.67271
50.0938	1.28604
50.198	1.4009
50.9576	0.427321
51.1255	2.88198
51.3053	0.756079
51.3623	0.0144438
52.4592	7.66998
52.6105	7.43584
52.7018	0.647722
53.5308	6.82716
53.7288	0.178865
54.7473	3.84941
55.352	0.0043853
55.4414	6.54567
55.4808	0.211535
55.6343	23.0836
55.6725	6.92734
55.7736	0.181054
56.0137	1.44541
56.4391	6.49247
56.5497	3.8282
56.6301	1.47569
57.2022	2.24978
57.551	0.279993
57.7246	1.01815
57.7335	6.87848
57.8654	26.4622
58.3141	6.55657
58.3725	6.07989
58.5762	2.89995
58.8743	4.0448
58.8932	3.97897
59.0063	18.1904
59.008	0.593515
59.1004	16.2204
59.5049	1.3361
59.5484	0.799858
60.1631	15.4229
60.3584	2.35837
60.6184	0.218801
60.7085	1.17048
60.7549	3.19933
61.1657	0.119213
61.305	0.116063
61.689	0.132158
61.8951	4.83424
62.0404	1.49196
62.1791	3.56356
62.213	0.0335905
62.2995	1.33309
62.4085	1.84982
63.4248	0.0735804
63.5175	0.294793
63.5264	0.00508348
63.5401	3.29905
63.8314	2.9846
64.1478	2.18579
64.3316	0.411117
64.4508	0.314561
64.5284	0.00255207
64.5492	0.0786501
64.6372	1.54615
64.6617	8.36343
64.7442	0.0432968
64.7569	1.2557
64.8667	10.7355
66.5931	0.573136
66.6169	1.07494
66.7082	1.65524
66.7869	4.90259
66.7923	0.393055
66.7953	2.66393
66.8098	23.917
66.9743	0.718041
66.9781	0.263884
67.1036	2.43118
67.1043	1.42629
67.4043	14.4468
67.4828	1.67152
67.6033	0.0699625
67.643	4.96898
67.6704	0.346363
67.8621	1.66048
67.9032	0.35171
68.0147	0.0468439
68.0802	0.00987519
68.1161	0.0164009
68.2649	7.68291
68.6882	2.85103
69.1162	0.8347
69.3436	0.0885197
69.5412	0.892153
69.6971	1.32573
69.9279	0.104188
69.9574	0.0138041
69.9593	1.10109
69.9601	0.369729
70.1262	1.40667
70.2979	0.207728
70.3426	10.6295
70.4359	6.62747
70.4625	0.572116
70.4685	0.0273621
70.5166	8.6222
70.5607	1.0061
70.611	6.42414
70.6496	0.144517
70.6532	0.0731079
70.733	0.179807
70.8705	1.62015
71.2858	0.290837
71.4148	0.00311043
71.4533	0.0565267
71.4674	0.48702
71.7602	0.373304
72.0863	2.75906
72.1116	0.00513522
72.3698	5.79547
72.4751	0.620942
72.4937	0.516972
72.6011	0.73484
72.7307	0.0556969
72.7748	1.10034
72.8313	0.680197
73.1086	0.271843
73.1107	1.43287
73.1949	2.36474
73.2376	11.1829
73.3615	3.34546
73.372	0.998875
73.403	1.20312
73.4785	0.173192
73.6007	0.0546663
73.6112	3.79259
73.7723	0.137615
74.2408	0.0856528
74.4533	1.3823
74.5984	0.0127979
74.8108	0.0685642
74.8747	0.0452095
74.9529	4.74574
75.1791	2.22863
75.2853	4.52266
75.4475	0.00616747
75.5107	0.0588786
75.5838	1.58541
76.4966	0.530248
76.6497	0.0615636
76.7538	4.27562
76.8348	1.21308
77.0476	0.509719
77.278	0.981706
77.6615	0.0353388
77.7839	2.64389
77.9229	0.228866
78.084	2.1455
78.2186	1.4075
78.7385	3.4026
78.8459	0.183428
79.0566	0.0913652
79.1796	0.28544
79.2524	0.917042
79.285	0.881288
79.3485	0.183138
79.6578	1.92686
79.7918	1.13431
79.827	1.49327
79.8738	4.6553
79.9956	0.0225172
80.0621	2.76752
80.1471	2.17612
80.2517	1.54659
80.2753	1.30668
80.3679	0.308228
80.4392	0.7764
80.4719	0.0416068
80.6001	0.604633
80.7117	0.00400667
81.0397	0.026103
81.0989	0.56867
81.2684	0.892757
81.3535	0.0391155
81.5005	0.00150441
81.5459	3.23718
81.7492	0.0105709
81.8453	0.00854622
81.8465	0.865843
81.9659	0.0228187
81.9869	0.0413058
82.0074	0.464253
82.1072	0.428692
82.1824	0.355159
82.1894	0.906409
82.196	0.226638
82.2649	0.0667371
82.3286	2.35253
82.4535	0.490375
82.4537	0.135076
82.7032	1.74449
82.7449	0.00145214
82.8203	0.771291
82.8662	0.510729
82.948	0.0639416
83.4796	1.19163
83.5123	0.348273
83.5503	4.56157
83.6391	0.938383
83.7767	0.0161256
83.8691	3.78312
83.8805	0.0131855
83.8956	7.41599
84.0848	0.514378
84.0865	0.371754
84.1956	2.80572
84.246	0.0168997
84.3953	0.536542
84.6562	0.559512
85.3977	0.028565
85.4825	0.0270294
85.5383	3.80807
85.7956	0.0306601
85.8357	0.449062
86.0399	0.358816
86.2922	0.0131902
86.5562	0.0481669
86.7034	0.632786
86.7589	0.00901488
86.775	1.38262
86.8448	0.0607152
86.9613	1.55567
87.0273	2.41348
87.2352	0.855484
87.432	2.9501
87.4847	0.0816454
87.4923	0.0546876
87.6384	0.771821
87.8828	1.81774
87.939	0.243556
87.9923	0.9368
88.2371	0.718345
88.2772	0.112194
88.3747	0.0230075
88.7492	2.55543
88.9157	0.0555869
88.977	0.769267
89.0144	0.0195478
89.1102	0.165386
89.252	0.116861
89.2781	0.00431594
89.3764	0.158236
89.4069	0.00971673
89.6574	0.0250545
89.6636	0.0379019
89.7817	3.3931
89.9042	0.358983