File: xy_files/MgMn4(FeO6)2.xy
# 2-theta (degrees)	Intensity
8.7208	0.655468
17.4926	100.0
20.0752	0.25179
20.0995	0.394091
20.1113	0.40781
21.8377	0.152331
21.8577	0.219404
21.893	0.132945
21.9896	0.166448
21.999	0.331853
22.0754	0.134166
26.3693	1.22588
26.5771	0.434364
26.6379	0.671764
26.678	0.0313588
26.8539	0.67547
26.8568	0.0456117
26.9716	0.321981
33.1436	0.378691
33.2295	0.408878
33.2711	0.290646
33.4871	0.343177
33.4982	0.516535
33.628	0.37758
35.1495	0.0623447
35.1705	0.0377247
35.2139	7.53507
35.4104	3.94254
36.1878	5.9125
36.2384	0.562922
36.276	5.91191
36.2923	8.43376
36.4211	8.36108
36.4551	0.601727
39.321	1.72894
39.3757	7.21633
39.5043	2.11257
39.5346	2.25816
39.7549	2.48982
39.779	7.00593
40.7863	0.22984
40.8021	0.0533777
40.8532	0.0370842
40.8778	0.157087
40.8885	0.0670609
40.9308	0.405306
41.172	0.117387
41.1886	0.265889
41.3275	0.206312
41.7317	0.13569
41.7466	0.00184174
41.7964	0.105621
41.8795	0.15246
41.9151	0.0953977
42.0129	0.00805717
44.192	7.97516
44.2487	2.20715
44.4505	8.0723
44.4918	6.44513
44.5234	0.112589
44.5657	0.231069
44.6408	0.108293
44.6859	0.15336
44.7833	6.42408
44.7983	1.59438
44.8458	0.013279
44.8658	0.220482
45.0281	0.109513
48.9506	0.25491
49.0424	0.101819
49.1249	0.115539
49.1655	0.0298638
49.2799	0.130663
49.3227	0.0719662
49.4326	0.086902
49.4385	0.100831
49.5833	0.0717033
49.604	0.147762
49.6538	0.29794
49.7502	0.0596148
50.4103	0.403711
50.4678	5.9297
50.7273	0.617835
50.7771	0.294327
51.1236	0.481528
51.1309	5.87878
54.2817	0.450234
54.7368	0.129123
54.8701	0.032294
54.9218	0.0120785
54.9464	0.00746331
54.9524	0.00171753
54.9581	0.146052
54.9918	0.024262
55.3442	0.120226
55.3505	0.187969
55.6029	0.0740865
55.6382	0.0574625
55.6592	0.0448523
55.6916	0.0420872
55.7156	0.0420934
55.7308	0.00827686
55.7394	0.0661817
55.7629	0.0370959
55.7757	0.0377599
55.8649	0.0307405
55.9337	0.0255372
55.9339	0.0460704
55.9782	0.0115922
57.694	3.39975
57.7522	0.0813571
57.8991	0.0767409
57.902	0.0759309
58.0036	0.0568268
58.0298	0.086956
58.0589	3.14127
58.0934	0.0302368
58.1158	4.14992
58.164	0.0731716
58.1647	0.293359
58.1686	0.03129
58.2899	0.2694
58.3337	0.074751
58.3433	0.00723539
58.3991	0.0907572
58.4335	0.00854653
58.4711	0.123188
58.5074	4.01924
58.5085	0.090563
58.6125	0.377078
58.6366	0.027408
58.7901	0.165562
61.6025	0.0822678
61.6278	0.0155604
61.6515	0.023739
61.6664	0.0441421
61.7365	0.044103
61.8201	0.244746
61.8237	0.00854341
61.9013	0.00514016
61.9127	0.140334
62.0032	0.00714144
62.024	0.0011415
62.2647	0.0211114
62.3075	0.0225135
62.3607	0.169939
62.3738	0.0906022
62.3774	0.129597
62.4045	0.0535728
62.6565	0.0623484
63.0518	4.08523
63.1361	0.0129072
63.1767	0.0190087
63.7101	0.0458107
63.7681	4.00611
63.81	3.78768
63.8748	0.00983551
63.9424	3.78261
64.0649	3.60882
64.3097	0.237845
65.8173	0.0244443
65.8254	2.71598
65.891	0.388013
65.9394	0.0245872
65.9501	1.9507
66.1489	2.58582
66.1994	0.0143205
66.2993	0.163114
66.3625	0.161276
66.4004	0.0229837
66.6317	0.0171436
66.6775	0.0151735
66.6982	0.142
66.7915	1.78677
66.7923	0.106051
66.7957	0.0323324
66.9351	0.0586385
67.0253	0.0687352
67.1554	0.066351
67.191	0.11518
67.4913	0.13033
67.5218	0.07658
67.6172	0.0836654
67.6414	0.00848054
67.7926	0.118921
67.9288	0.141939
67.9743	0.204768
68.273	0.0805537
68.3004	0.272281
68.4628	0.195402
69.2575	1.07432
69.3289	0.00653305
69.4556	1.15029
69.5608	0.158951
69.7615	0.0934326
69.8019	0.001146
69.8357	1.02484
69.8587	0.0103817
70.1103	1.03638
70.3641	0.120117
70.3902	0.0317985
70.6947	0.0759444
72.8682	0.0589893
72.933	0.0971348
72.9371	0.0384708
73.0533	0.0732209
73.2476	0.12754
73.3493	0.0756434
73.5055	0.13138
73.5549	0.0437271
73.9105	0.0571297
73.9298	0.0526281
74.0041	0.0565838
74.0521	0.0500191
74.0704	0.0539709
74.1354	0.320075
74.2737	0.0434156
74.2993	0.702856
74.3496	0.746664
74.4536	0.66738
74.7489	0.323639
74.7668	0.0589868
74.8933	0.102513
74.9246	1.1293
74.9664	1.09882
74.9763	0.10905
74.9963	0.103582
75.0071	0.0966423
75.0273	0.0965504
75.1104	0.0243481
75.1793	0.121212
75.2729	0.104106
75.419	1.09331
75.4888	0.849748
75.9562	0.297951
75.9652	0.78804
76.8004	0.970085
76.9231	1.0455
77.0145	0.996622
77.0541	1.05892
77.3672	1.00099
77.4501	1.04798
77.8647	0.0118093
77.8936	0.0108386
77.933	0.0216279
77.9948	0.0213816
78.0216	0.0116815
78.0546	0.0159284
78.1518	0.126004
78.3009	0.0574612
78.3489	0.112849
78.4356	0.0803733
78.4494	0.00794771
78.4862	0.0235914
78.5101	0.0204156
78.5741	0.00890031
78.5747	0.00563877
78.592	0.0162594
78.5966	0.00648636
78.645	0.0190276
78.6679	0.0647395
78.6722	0.0933467
78.6909	0.010499
78.7031	0.0719759
78.7709	0.0963726
78.8038	0.0147782
78.8772	0.0734796
78.8869	0.00130441
79.3356	0.0342938
79.3704	0.0562108
79.7027	0.130935
79.9886	0.257
80.0407	0.123407
80.1718	0.0758045
80.177	0.0960315
80.2483	0.0344668
80.32	0.0727528
80.3267	0.23869
80.3311	0.066555
80.3509	0.0106484
80.371	0.00469773
80.3827	0.0689285
80.4401	0.00262565
80.4414	0.0930536
80.4525	0.00174183
80.4576	0.0385015
80.5073	0.00788431
80.5594	0.0185349
80.6718	0.0214822
80.7004	0.00298607
80.7014	0.0497899
80.8148	0.0269736
80.8306	0.00188637
80.881	0.0583807
80.926	0.0738465
80.9281	0.00618068
80.9288	0.218113
80.9532	0.0969491
80.9968	0.0376796
81.0111	0.0138806
81.0594	0.043386
81.0605	0.0154224
81.3394	0.220109
81.4697	0.0507408
81.4787	0.0829695
81.6274	0.0364887
81.6403	0.0649856
83.5568	0.023583
83.5767	0.00560545
83.6302	0.0265564
83.7422	0.0046511
83.7464	0.0115112
83.8676	0.00752791
84.0685	0.00922526
84.0774	0.012951
84.2906	0.00161066
84.3728	0.00172656
84.5095	0.0112322
84.5536	0.0307511
84.5814	0.975695
84.7208	0.934489
84.999	0.215801
85.0488	0.903631
85.0628	0.469082
85.1263	0.983136
85.5025	0.0406463
85.5799	0.335427
85.6903	0.973818
85.7521	0.921165
86.0937	0.475447
86.1072	0.101859
86.3563	0.0389777
87.1915	0.062044
87.4367	0.248787
87.5989	0.0503347
88.0489	0.0142018
88.1083	0.0292486
88.1267	0.0173886
88.3123	0.0433745
88.324	0.302099
88.3371	0.058405
88.3609	0.0538505
88.4022	0.0145988
88.4812	0.0101945
88.5358	0.0172189
88.6003	0.00400662
88.6283	0.0121418
88.7389	0.0389596
88.7595	0.0320734
88.7699	0.00854493
88.792	0.0628605
88.7929	0.0782556
88.8685	0.0325852
88.8944	0.0429225
88.9662	0.00492803
89.0288	0.051627
89.0551	0.0262475
89.0851	0.00348767
89.1191	0.0070057
89.1224	0.0234362
89.1632	0.005539
89.2776	0.0076447
89.3126	0.0265271
89.324	0.050017
89.3517	0.00490751
89.3727	0.0536331
89.4165	0.0822626
89.4406	0.00192534
89.4503	0.0170552
89.4524	0.0151635
89.6183	0.0541018
89.66	0.0701702
89.67	0.0696973
89.7363	0.00629149
89.7829	0.0152577