File: xy_files/Mn17Fe13O40.xy
# 2-theta (degrees)	Intensity
12.3636	0.0168986
14.3985	0.21961
14.4342	0.00756234
14.4385	0.0395963
15.5163	0.0975622
15.5708	0.358881
15.5827	0.100155
15.5922	0.025367
16.5099	0.0096975
17.5669	47.153
17.6341	42.2584
17.6516	38.9001
17.6789	36.7927
20.1703	0.0444482
20.2779	0.0449934
20.312	0.0712223
20.3529	0.00212072
20.3743	0.00776919
20.4145	0.0100072
20.5719	0.0131988
20.6165	0.0406666
20.6781	0.00515004
20.717	0.0401433
20.7493	0.0267923
21.7764	0.0476229
21.8609	0.00268504
21.9808	0.0190904
23.4329	0.114559
23.5126	0.149607
23.5366	0.0380066
23.586	0.00577238
23.7844	0.0129612
23.805	0.0327013
23.8899	0.00423755
26.2472	0.0555361
26.3387	0.117075
26.89	0.0873966
26.9727	0.138044
26.9985	0.0568233
28.7534	54.5659
28.8034	53.6524
28.9626	56.1817
29.0309	0.0105236
29.0856	54.7857
29.0867	0.0328639
29.104	0.0111629
29.1128	0.0391279
29.1243	50.5286
29.2031	51.3205
29.9037	0.024029
29.9978	0.00936096
30.0124	0.0691932
30.0148	0.0541257
30.5627	0.00769927
30.6476	0.0496212
30.6747	0.147957
30.7358	0.00111599
31.3266	0.00353192
31.4388	0.0790076
31.4633	0.0472458
31.4829	0.00156722
32.2092	0.166506
32.2367	0.159201
32.2485	0.0335757
32.2584	0.0126535
32.2652	0.00491401
32.3191	0.00103679
32.3868	0.00662938
32.3948	0.217408
32.4181	0.139585
32.4358	0.0102572
32.732	0.248132
32.7812	0.401335
32.8131	0.0632182
32.8306	0.0288949
32.9188	0.303317
32.9737	0.507671
32.9878	0.0279766
32.9993	0.0121243
33.3636	0.064136
33.3946	0.0551581
33.7822	98.6511
33.8404	100.0
33.9136	88.4423
33.9203	93.1522
33.9677	98.7957
34.0351	93.5404
34.0767	89.1738
34.0795	89.7881
34.3998	78.8316
34.4863	85.9672
34.5145	89.5989
34.5795	98.1809
35.3184	0.0313889
35.3843	0.063924
35.4919	0.00228624
35.4953	0.0125251
35.5006	0.0170279
35.5644	26.6973
35.5789	0.0113735
35.6349	0.0285299
35.6511	0.017155
35.6836	0.00229613
35.704	24.9478
35.7405	25.253
35.7623	0.00487226
35.7971	24.6394
35.8207	0.0102884
37.2888	0.0519868
37.361	0.00745429
37.4661	0.145399
37.493	0.00300092
37.5056	0.00347991
37.5538	0.0297661
37.6225	0.0475151
37.6508	0.00133478
37.695	0.00158533
38.2466	0.015373
38.3713	0.00809194
38.3962	0.00168952
38.4373	0.00304262
38.4592	0.109642
38.4883	0.164235
38.5089	0.0100423
38.5567	0.0306229
39.3129	0.0361884
39.4068	0.0108284
39.639	0.123747
39.7166	0.0291648
39.8108	0.0602727
39.8698	0.0212266
39.8907	0.00604223
39.9063	0.00606946
40.0252	0.00114852
41.0019	85.5906
41.2026	0.00257095
41.2281	0.0199796
41.2502	0.0575054
41.3	83.4455
41.386	0.0248736
41.5059	0.00900044
41.5156	0.00545745
41.5404	0.0504048
41.847	0.00550241
41.9411	0.0342594
42.0709	78.7874
42.1529	0.0386056
42.2211	0.0721708
42.3186	0.0514398
42.4006	0.00254007
42.4607	0.00109105
42.4845	0.075718
42.5501	0.00535239
42.5722	0.0428331
42.58	0.0113673
42.5867	0.00432677
42.6513	0.0320549
42.6761	0.0648878
42.7247	0.0177532
42.9189	0.167178
43.0145	0.0310573
43.057	0.0841369
43.1143	0.00749265
43.2212	0.0168223
43.2248	0.0163406
43.2648	0.0137525
43.325	0.0204626
43.7715	0.00148107
43.8009	0.0191414
44.1675	0.0133569
44.255	0.0156875
44.2821	0.0278994
44.2958	0.0449662
44.3933	0.0634493
44.5725	0.0171819
44.6785	0.0249693
44.6972	0.0202226
44.7744	0.00896646
44.9799	0.456167
45.1172	0.279494
45.1237	0.0432829
45.1397	0.15535
45.284	0.0468134
45.3698	0.415179
45.4443	0.0548721
45.5522	0.265431
45.5574	0.081571
45.5922	0.227626
45.65	0.0342343
45.707	0.35912
46.1379	0.00254315
46.1916	0.00256522
46.2047	0.022929
46.2401	0.0032006
46.3127	0.0296198
46.3416	0.00275395
46.3498	0.00318728
46.3719	0.0625215
46.3888	0.00118112
46.3951	0.0190409
46.4082	0.00642785
46.4227	0.078482
46.4571	0.00166548
46.5188	0.182975
46.5405	0.00538516
46.6068	0.0227077
46.6166	0.102443
46.6603	0.00399296
46.6979	0.00386872
46.7511	0.0126452
46.7818	0.00418254
46.8559	0.0013565
46.8928	0.117027
46.9718	0.0108214
46.9901	0.0144421
47.0101	0.00823381
47.0447	0.110819
47.0679	0.0227124
47.0998	0.00402457
47.1862	0.0112858
47.2051	0.0667306
47.2084	0.00599545
47.224	0.0462745
47.228	0.114476
47.7792	0.0131974
47.8669	0.0045389
47.9565	0.0201321
47.9781	0.00302237
47.9951	0.00339963
48.0261	0.00154296
48.04	0.0540868
48.0586	0.0512618
48.0736	0.0476372
48.1471	0.00398025
48.2015	0.0472485
48.229	0.00696425
48.2304	0.0504488
48.253	0.00416649
48.5001	0.0245826
48.5891	0.00188779
48.655	0.111996
48.6789	0.00635858
48.7233	0.0144979
48.7679	0.00361431
48.7908	0.12004
48.8315	0.0305909
48.8731	0.0697336
49.2174	0.00554301
49.3414	0.0313247
49.5686	0.00684409
49.6255	0.0191116
49.716	0.0409422
49.9106	0.0152869
49.9565	0.00107473
50.9223	8.32299
50.9247	0.0112251
51.058	8.81027
51.0607	0.00737935
51.0691	0.0146255
51.1253	7.893
51.1622	0.00225391
51.1862	8.68081
51.1977	9.45388
51.2152	0.00958119
51.2878	9.10336
51.2908	0.0149801
51.3338	8.55674
51.3727	9.44377
51.4204	0.0276791
51.5828	9.06926
51.7593	8.74929
51.8135	8.48582
51.9284	7.94625
51.9397	0.11105
51.9747	0.0124459
52.0316	0.0450363
52.0898	0.00271689
52.1848	0.021097
52.2071	0.0418471
52.2374	0.00501557
52.2461	0.026018
52.292	0.0143897
52.3099	0.00586789
52.319	0.0762357
52.3903	0.0793721
52.9579	0.00187577
53.0607	0.032163
53.0888	0.0107748
53.1019	0.0240594
53.1041	0.0182265
53.1229	0.0762939
53.1579	0.00308891
53.2537	0.0262521
53.2792	0.00430054
53.3356	0.00515149
53.3894	0.0091087
53.4012	0.0214632
53.4306	0.017894
53.4467	0.00510162
53.4494	0.0253831
53.4533	0.00118213
53.4729	0.00616971
53.4852	0.0541874
53.4859	0.035372
53.512	0.167194
53.7036	0.0157147
53.7748	0.00248307
53.8267	0.0103443
53.8425	0.124713
53.8653	0.287963
53.9887	0.00577354
54.1056	34.3068
54.1604	33.1474
54.2147	0.00290086
54.2443	28.5152
54.2638	29.8281
54.4811	34.2032
54.5291	14.2705
54.5422	30.9658
54.593	28.9672
54.6059	29.5476
54.7534	14.1983
54.8121	14.0556
54.9032	14.0208
55.3002	0.00767176
55.3019	0.0327458
55.3559	0.0143327
55.3874	29.3876
55.3926	0.00184362
55.4234	0.00107486
55.4561	0.00388214
55.4816	29.3353
55.497	0.00328726
55.5139	29.4709
55.5308	0.0279626
55.5401	0.00286466
55.5593	0.0120182
55.5831	0.00816842
55.5933	30.2864
55.61	0.00126675
55.6255	0.0220868
55.6314	0.0165288
55.6621	0.00614441
55.6642	0.0225572
55.6778	0.102783
55.6886	0.00113258
55.6947	0.00120875
55.729	0.0796582
55.7853	0.00131853
55.8241	0.00114745
55.8505	0.016168
55.9042	0.020287
55.9549	0.0545852
55.9686	0.0286832
56.0462	0.022829
56.7406	0.0169572
56.8064	0.00480189
56.8116	0.0113643
56.939	0.01375
57.017	0.00463867
57.0205	0.0224098
57.0779	0.00100669
57.1283	0.0215753
57.1345	0.00313253
57.2657	0.0177135
57.5935	0.0121671
57.6578	0.00750293
57.9271	0.00324127
58.0918	0.00969675
58.1206	0.00586091
58.2797	0.0199507
58.2896	0.00801306
58.3307	0.00417817
58.3925	0.0369509
58.4834	0.0113313
58.5783	0.0160167
58.5799	0.0100665
58.8815	0.00407208
59.4177	0.0783362
59.5151	0.0318092
59.5495	87.0714
59.56	0.0167823
59.6612	87.117
59.6856	0.10348
59.6892	0.013278
59.7521	0.00413846
59.7527	0.00384921
59.7596	0.0108678
59.8151	0.0016445
59.8272	0.0633196
59.8371	0.0491815
59.8931	0.0087592
59.9069	0.00757307
59.9316	0.0271378
60.0169	84.4911
60.0204	0.0141338
60.0535	0.00544056
60.1696	0.013231
60.2921	83.2553
60.2947	0.00478324
60.3239	0.0077283
60.3342	0.0023997
60.353	0.00197646
60.3787	84.3502
60.4013	0.0166212
60.4365	0.00120673
60.5553	83.2601
60.6516	0.00974172
60.686	0.00503016
60.6937	0.0181936
60.7867	0.016605
60.8193	0.00547168
60.9651	0.00988313
60.986	0.00419609
60.9923	0.00106696
61.0096	0.00102373
61.1974	0.0137719
61.2037	0.00742425
61.26	0.0302735
61.2997	0.0172193
61.4058	0.0123746
61.4988	0.219167
61.5309	0.0117696
61.6113	0.110607
61.6239	0.120546
61.723	0.00356847
61.7526	0.187017
61.8023	0.00279981
61.8389	0.0459284
61.8418	0.112816
61.8983	0.151125
61.9339	0.0234279
61.9715	0.160193
62.0283	0.0992801
62.1168	0.049013
62.1305	0.00395015
62.1705	0.00448009
62.179	0.200334
62.3429	0.0244213
62.3813	0.00961413
62.4385	1.37199
62.5887	0.991716
62.5975	0.689904
62.6507	0.459804
62.6509	0.718174
62.6655	1.10669
62.7329	0.586747
62.8122	0.640927
62.8334	1.2765
62.8476	0.89366
63.0155	1.19731
63.0174	0.516236
63.0298	1.4093
63.1172	0.746367
63.2916	0.862672
63.3238	1.52645
63.4367	1.19785
63.5187	0.00635466
63.5202	0.00181149
63.5368	1.24504
63.5728	0.00827305
63.576	1.13506
63.5932	0.00471651
63.6219	0.0117066
63.6224	0.00890544
63.6292	0.0082853
63.6561	0.0155745
63.7057	1.11165
63.7855	0.770607
63.7899	0.0157398
63.8147	0.00334084
63.8219	0.0100323
63.8283	0.0447952
63.8328	0.0033233
63.8355	0.683107
63.8416	0.0285747
63.845	0.695213
63.8741	0.00279523
63.8757	0.0419333
63.8763	0.00250186
63.8959	0.0519784
63.904	0.00916519
63.9246	0.828831
63.9612	0.0178621
63.9878	0.0184367
64.0164	0.00291737
64.0193	0.00490015
64.0575	0.00379242
64.0701	0.0469842
64.0925	0.0574137
64.142	0.00961378
64.1485	0.0263489
64.1809	0.00344406
64.2309	0.00680588
64.2685	0.0159987
64.3636	0.0860841
64.3762	0.0154644
64.4249	0.00954344
64.437	0.0717339
64.4559	0.101069
64.5681	0.00142089
64.5765	0.0503846
64.6841	0.0390015
64.6872	0.00381572
64.7214	0.00732901
64.8064	0.00731216
64.8693	0.0270447
64.9115	0.00628327
64.9364	0.0102475
64.979	0.00151308
65.1703	0.00136286
65.2553	0.0109389
65.2883	0.00637918
65.3419	0.105459
65.3629	0.00530355
65.4016	0.0494688
65.6186	0.0964816
65.6551	0.0228218
65.6754	0.0210901
65.7207	0.0166675
65.7248	0.0769075
65.8917	0.00140707
65.9583	0.00609789
66.0979	0.0335913
66.2759	0.0199111
66.4022	0.0130344
66.4775	0.00485744
66.5027	0.0220144
66.552	0.0203462
66.6099	0.0014883
66.6144	0.00301867
66.7423	0.00365224
67.2375	0.00429301
67.2634	3.40972
67.3022	0.00103337
67.3139	2.81933
67.3413	0.040837
67.3418	3.21327
67.3917	0.00269959
67.428	0.0117506
67.4551	0.0027319
67.4824	0.0018892
67.5054	0.00227793
67.5209	0.00588799
67.526	0.0355249
67.5298	0.0160191
67.5689	3.64483
67.5746	0.0342965
67.6388	0.0114344
67.6455	0.00215014
67.654	0.0379974
67.6881	3.19198
67.7055	0.0183327
67.7418	0.00548898
67.7648	0.0722365
67.7662	3.29112
67.7672	0.0279636
67.7699	0.0289614
67.7759	0.00172499
67.8023	0.00117863
67.8088	0.00405275
67.8259	2.8569
67.8389	0.0161608
67.8502	0.0143387
67.8511	0.0197564
67.8746	0.00100888
67.9098	0.00493545
67.9654	0.0107307
67.9785	0.00437956
67.9846	0.0117037
68.0016	0.00583547
68.0111	3.37316
68.0187	0.00396606
68.0654	0.00111438
68.1248	0.0491081
68.1402	0.00113085
68.1669	0.00959692
68.1771	0.00874944
68.2413	0.0037859
68.3789	0.00488741
68.3828	0.0164258
68.3843	0.0076532
68.3878	0.00116762
68.393	0.023036
68.4228	0.00414943
68.485	0.00918938
68.5386	0.00151758
68.5584	0.0388273
68.5614	0.00218084
68.5844	0.046746
68.5975	0.0314051
68.6025	0.0233347
68.6546	0.00231539
68.6899	0.00171285
68.717	0.0127182
68.791	0.0322904
68.8091	0.00348951
68.8421	3.11274
68.9289	3.0625
69.0369	0.00462989
69.038	0.00436302
69.0944	2.90633
69.1127	2.87417
69.1647	0.00240056
69.1976	0.0016823
69.496	0.00252045
69.5312	0.00710713
69.5508	0.0224569
69.6194	0.00429833
69.6772	0.00843647
69.7705	0.00840769
69.7776	0.00160893
69.803	0.00370645
69.9267	0.0038319
69.9549	0.0204272
70.0751	0.0192432
70.1131	0.0135036
70.1475	0.0115924
70.2397	0.00118446
70.3258	0.0482683
70.3358	0.0245743
70.3472	8.89447
70.5723	8.86496
70.5796	8.21578
70.7552	10.1797
70.7958	10.3489
70.8551	8.8257
70.8952	10.4495
70.9865	9.56315
71.0569	5.43949
71.0719	10.5929
71.1354	0.011606
71.1489	0.0233469
71.1938	5.5136
71.2499	0.0519344
71.3451	0.0378575
71.3557	9.48426
71.3661	5.34369
71.382	5.08869
71.4018	0.00519665
71.4353	0.00278044
71.44	9.21707
71.4762	0.00505967
71.4937	5.43507
71.4958	0.00934313
71.5681	0.0120987
71.6005	0.00124821
71.609	8.30137
71.624	0.0577109
71.6526	5.28473
71.7162	0.0136884
71.726	0.00497325
71.7478	0.0124293
71.7507	5.20239
71.7572	5.2284
71.8212	0.0167252
71.9554	0.0189435
72.0104	0.0247418
72.1344	0.00104787
72.1638	0.0166896
72.4058	0.00256761
72.444	0.0149882
72.4739	0.00205952
72.5146	5.2168
72.7191	0.00702021
72.7197	5.13129
72.7348	0.0106649
72.7865	5.01629
72.7993	0.00488697
72.8075	0.0527941
72.8824	0.0110345
72.9409	4.8269
73.0316	0.0999046
73.0546	0.0673929
73.1061	0.00101726
73.1719	0.00116438
73.2508	0.0168061
73.3088	0.00818698
73.3351	0.103308
73.3457	0.0481148
73.3563	0.0241701
73.4624	0.00579435
73.4946	0.00294947
73.6685	0.00361754
73.7492	0.0122394
73.8696	0.00379394
73.9301	0.00217168
73.9457	0.00283651
74.1553	0.00268624
74.4647	0.0097651
74.5011	0.00965066
74.6245	0.00531924
74.704	0.00381243
74.724	0.00456322
74.7934	0.00653199
74.8619	0.0423809
74.9801	0.00117304
75.064	0.00617357
75.1048	0.00637187
75.1203	0.00864478
75.1233	0.0225126
75.1284	0.00291561
75.1411	0.00345725
75.1602	0.016131
75.2089	0.00534871
75.2658	0.00640784
75.2947	8.39238
75.3174	0.00891088
75.3295	0.00352505
75.3516	0.0201035
75.3597	0.00108023
75.3698	0.0274173
75.4138	0.0311994
75.4488	0.00309752
75.4643	0.00507521
75.4932	0.00704584
75.5031	0.00502777
75.5407	0.0395011
75.6307	8.60966
75.6321	0.00720145
75.7186	8.58911
75.764	0.00991274
75.7713	0.00501507
75.8022	0.00272498
75.8552	8.62629
75.9122	0.00415655
76.0185	0.00473435
76.0935	0.0463181
76.1373	0.0063395
76.2747	0.0301831
76.3715	0.00161156
76.4486	0.0113867
76.5471	0.0869684
76.5622	0.0591087
76.5875	0.0587889
76.6147	0.00227442
76.7244	0.00216524
76.7494	0.00945543
76.7608	0.0149209
76.7662	0.00955346
76.7882	0.0789292
76.7957	0.00153511
76.8404	0.0480007
76.8929	0.00511948
76.9162	0.0124849
76.9356	0.00145047
76.958	0.013192
77.0081	0.00468565
77.0292	0.0114872
77.0411	0.00496968
77.0806	0.00474534
77.1236	0.0756425
77.1261	0.00837776
77.1336	0.00745027
77.1709	0.0473662
77.1874	0.0138855
77.2276	0.0407987
77.244	0.0166939
77.363	0.13173
77.3953	0.011066
77.4018	0.0214615
77.4209	0.114626
77.4571	0.0922015
77.4754	0.0271541
77.5184	0.013414
77.525	0.00224301
77.547	0.052665
77.598	0.00828458
77.5997	1.496
77.7506	0.00509892
77.7734	0.846486
77.8051	0.00868186
77.827	1.19931
77.8542	0.983218
77.9818	0.123081
78.0449	0.0771556
78.1042	0.0398471
78.1272	0.0203966
78.2383	0.00367142
78.2471	1.14721
78.3018	0.00979436
78.3508	1.33303
78.4551	0.00204313
78.4706	0.00420136
78.5421	0.00652125
78.5444	0.0140776
78.577	0.0108123
78.6017	1.22047
78.6158	0.00107087
78.7129	0.0015626
78.7152	0.0152177
78.7325	1.17012
78.7399	0.00883266
78.7643	0.00164362
78.765	0.0176858
78.7665	0.029473
78.7784	0.967947
78.786	0.0061602
78.7967	0.0342337
78.806	0.0175303
78.8206	1.03523
78.827	0.00699347
78.8663	0.00545536
78.9014	0.0139384
78.9325	0.0170667
78.9604	0.0260567
78.9647	0.0162696
78.976	0.00643634
78.979	0.00614723
78.997	0.993824
79.0324	0.00508846
79.0466	0.00465546
79.0474	0.00242264
79.0662	1.09652
79.0786	0.00848458
79.1029	0.00264684
79.1458	0.0460298
79.163	0.00389077
79.2035	0.00236488
79.2144	0.00524437
79.2657	0.00217908
79.2839	0.0199782
79.3005	0.00265447
79.3194	0.0089417
79.3228	0.0339372
79.363	0.00457677
79.4114	0.00142167
79.4254	0.00194554
79.4314	0.00504604
79.4805	0.00622495
79.4922	0.00155068
79.5084	0.00291709
79.5922	0.024386
79.6163	0.0252989
79.6391	0.0109323
79.6497	0.00648459
79.6542	0.0515897
79.6704	0.00183877
79.676	0.00357773
79.6863	0.0183826
79.6879	0.00585529
79.689	0.0121522
79.7057	0.00107841
79.7498	0.1414
79.8841	0.00749656
79.8893	0.00180019
79.9229	0.028778
79.9299	0.00263408
79.9316	0.0243706
79.9493	0.00342587
79.952	0.00615021
79.9664	0.00422183
79.9715	0.0151758
80.0387	0.00182816
80.1318	0.00236236
80.2574	0.0108727
80.2644	0.00535031
80.3005	0.00267228
80.3168	0.00227346
80.3869	0.00235209
80.4966	0.00180144
80.6893	0.00953421
80.9285	0.00111569
80.9463	0.00415233
80.9537	0.00629164
80.9729	0.00535057
81.0266	0.0329551
81.1022	0.0239608
81.2125	0.0106685
81.217	0.0027464
81.2198	0.00162377
81.2316	0.0595255
81.4137	0.02984
81.4139	0.0181533
81.4729	0.0181184
81.4798	0.00827905
81.5486	0.00474167
81.5965	0.0144012
81.7765	0.0152618
81.8104	0.0143438
81.8703	0.00109056
81.902	0.00329424
81.9656	0.0117815
81.998	2.73924
82.0332	0.00897535
82.101	0.00154676
82.1824	0.0030178
82.2291	0.00151155
82.2449	0.0156113
82.2563	2.60401
82.2595	2.32952
82.3038	2.01534
82.348	0.021141
82.3513	1.88981
82.3573	0.0689751
82.3816	2.1375
82.3977	0.00297696
82.403	0.00740371
82.4239	0.00362985
82.4304	0.00385363
82.4564	0.0620544
82.4653	0.0149559
82.4756	0.010278
82.4922	2.28531
82.5278	0.00184434
82.5605	2.28234
82.5753	2.2448
82.5879	1.95116
82.6129	0.00753626
82.6384	0.049232
82.6388	0.0114581
82.6479	0.00153821
82.6856	0.00473745
82.7188	0.00169202
82.7424	2.01431
82.8517	2.20051
82.8572	0.0115717
82.8941	2.31975
82.8953	0.00574079
82.9718	0.00326086
82.9735	2.28396
83.0412	0.00438916
83.1612	1.99241
83.1803	2.2267
83.2465	2.42069
83.2659	0.0039051
83.2736	0.00547495
83.3015	0.00520101
83.3606	2.2837
83.3674	0.00492234
83.4017	2.31269
83.587	0.00175986
83.5998	0.00185224
83.6461	2.19631
83.7029	2.14756
83.7427	0.00552669
83.7444	0.00854049
83.7546	2.03381
83.8271	2.14652
83.844	0.0118141
83.863	0.00170112
83.8834	0.00181712
83.9012	0.0373918
83.943	2.19673
83.9689	0.00813809
84.0648	0.0185156
84.0777	0.00366211
84.122	0.0391991
84.1642	0.0201212
84.1789	0.0175398
84.1853	0.00684757
84.1941	0.013939
84.1961	0.00895454
84.2118	0.00115978
84.2354	0.00817976
84.2558	0.00446389
84.3424	0.00745362
84.3771	0.00261432
84.4682	0.0223342
84.5262	4.62868
84.5608	0.00169887
84.6308	0.0651576
84.6556	0.0123618
84.6881	3.7426
84.6964	4.26427
84.7073	3.59233
84.7735	4.07743
84.7912	3.8091
84.8684	0.00501624
84.902	5.99412
84.9285	0.00127956
84.9807	0.00879793
85.0202	0.00991231
85.0293	4.39853
85.1204	0.0023549
85.1441	4.11606
85.1449	4.12632
85.1889	3.47624
85.2154	4.16175
85.2568	3.89362
85.2685	6.70364
85.3013	0.0122305
85.3269	3.7876
85.3483	7.49938
85.3486	7.02154
85.3793	0.0113027
85.3932	0.00868397
85.4128	8.17883
85.4282	3.83895
85.4928	0.00967377
85.557	0.0371411
85.5718	7.30442
85.5919	0.0126747
85.6325	0.00786816
85.6542	6.97574
85.6705	3.72554
85.6872	4.27323
85.6991	0.00108782
85.7537	0.00595455
85.7984	0.0177861
85.8336	0.00274059
85.8681	0.00966628
85.8861	0.00402111
85.931	6.80398
85.952	0.0372058
85.9575	7.12877
85.9684	0.0166545
85.984	0.00901856
85.9852	0.0106705
85.9996	0.00112872
86.0209	7.23963
86.0389	0.00999522
86.0555	6.64418
86.0629	0.002351
86.0792	0.0049845
86.1092	0.00742851
86.1189	0.00466237
86.1395	0.00451072
86.2254	6.37969
86.2543	0.0194708
86.2645	0.00388
86.2846	0.00658697
86.3676	0.0358616
86.3852	0.0038729
86.4489	3.64287
86.5273	0.00813588
86.5673	4.17151
86.5845	3.53689
86.611	0.00460684
86.7314	0.0165804
86.7402	4.1251
86.7552	0.0120436
86.8523	0.014653
86.8546	0.0126077
86.8798	3.39602
86.9016	0.00932565
86.9035	3.22665
86.9076	0.00157685
86.962	3.79005
87.0229	4.03613
87.0263	0.0015498
87.0376	0.0145324
87.0566	0.0204227
87.1172	0.0018884
87.1404	0.00215258
87.236	0.00153973
87.2704	0.0261945
87.3242	0.0202853
87.3447	0.0134834
87.3596	0.00521481
87.5361	0.0311275
87.5425	0.0163005
87.5899	0.0013573
87.6302	0.0470679
87.6765	0.00844203
87.7207	0.0731184
87.7787	0.00191646
87.8133	0.00821851
87.9326	0.00198548
87.9389	0.0185141
87.9693	0.00571119
88.0043	0.00915892
88.0526	0.0380673
88.0771	0.0348795
88.1904	0.0218275
88.1981	0.0110625
88.2322	0.00120165
88.3348	0.00245106
88.3472	0.0041566
88.3583	0.0267525
88.3662	0.00937635
88.3983	0.020835
88.4649	0.0105627
88.7395	0.0234883
88.7645	0.00786945
88.7966	0.0105291
88.8303	0.00648838
88.8333	0.0044937
88.902	0.00819163
88.9255	23.1098
88.9742	0.00418032
89.1046	0.0228053
89.131	0.00146671
89.1611	0.0106473
89.1639	0.00186647
89.208	0.0219384
89.3676	0.00347209
89.4021	0.0129027
89.4571	0.0154267
89.4671	0.0100648
89.4687	0.00250454
89.4984	0.00639854
89.5207	0.0187892
89.5789	0.0103898
89.5863	0.00466877
89.6548	0.00462999
89.6659	0.0072085
89.6745	0.00999566
89.6922	0.00799088
89.6949	0.00183772
89.7102	22.5878
89.8084	0.00361172
89.835	0.0119676
89.8807	0.0573794
89.9374	0.00794158
89.9435	0.00431806
89.9447	0.00873735