File: xy_files/Mn19Fe17O48.xy
# 2-theta (degrees)	Intensity
2.93748	0.050134
5.87689	0.00250147
8.82018	0.04934
11.7693	0.0094913
14.7263	0.00509143
16.6358	0.0423666
16.6753	0.282479
16.887	0.00841551
16.9065	0.0086197
16.9308	0.15052
17.6385	21.2747
17.6759	0.0423233
17.6852	0.0194385
17.6932	24.5644
17.7039	29.8419
18.8324	0.0330701
18.8806	0.0393328
18.885	0.0621456
18.9069	0.00537381
20.394	0.0335666
20.4427	0.0338674
20.4589	0.00904298
20.4751	0.396659
20.6721	0.00349397
22.2497	0.0275043
22.2983	0.266883
22.3244	0.287428
22.3356	0.00697273
23.6651	0.00274245
24.3369	0.0395552
24.385	0.00769169
24.4192	0.0166411
24.4261	0.073676
26.6062	0.0124729
26.6535	0.078127
26.6747	0.00983317
26.6945	0.0630271
26.6977	0.0219881
29.0205	29.4786
29.0455	54.7906
29.0672	0.001171
29.1137	0.0237078
29.1137	54.0594
29.1155	25.2357
29.1915	0.0192584
29.2089	0.00344299
29.2698	0.00844654
29.6427	0.00813985
29.7031	0.0205417
30.3867	0.0205297
30.437	0.056132
31.4048	0.00632531
31.4699	0.0160538
31.5528	0.00452756
31.5988	0.0374396
31.6473	0.0019148
31.65	0.0309745
32.674	0.0744939
32.7525	0.0874019
32.7529	0.0201518
32.7762	0.00743917
33.7175	0.00833492
33.7612	0.0307918
33.7816	0.0843887
33.8478	0.105098
33.8579	0.0158659
34.1554	0.0216266
34.1698	89.104
34.1835	0.00437372
34.1957	51.9349
34.2288	97.0597
34.2461	91.151
34.2604	90.5342
34.2662	0.00184358
34.2756	100.0
34.2791	0.0184592
34.2841	43.683
34.8697	0.0141659
34.9045	0.0136225
34.9341	0.00378838
35.7133	12.8968
35.7908	0.00514237
35.8103	0.00573071
35.8267	11.1608
35.8489	26.0097
35.868	0.00731977
35.9693	0.0745573
36.8488	0.00486723
36.8986	0.00420589
36.943	0.0228751
36.9479	0.0226265
36.9949	0.0498031
37.0022	0.00126429
37.7458	0.0050442
38.2998	0.00117355
38.3088	0.00411309
38.9275	0.0150632
39.6885	0.0166218
39.7328	0.0062996
39.7462	0.00272292
39.7832	0.00229216
39.7859	0.0837791
39.7948	0.0158078
39.848	0.0315063
39.87	0.025071
39.8959	0.0380162
39.9025	0.0458965
39.9098	0.0277155
41.4725	0.00664475
41.5751	83.7425
41.6091	41.1158
41.6433	0.0164916
41.9627	0.00242938
42.0582	0.0079265
42.0895	0.0036976
42.5465	0.00514621
42.5905	0.0025079
42.6448	0.0108125
42.6553	0.0212019
43.3616	0.0227912
43.4646	0.0086412
43.5386	0.00331346
44.3853	0.107314
44.4034	0.0230843
45.024	0.0304533
45.0721	0.00587369
45.1203	0.0592827
45.1403	0.00169847
45.1521	0.0027139
45.1863	0.00878317
45.2562	0.00784825
45.2601	0.0204634
45.3987	0.00127621
45.4283	0.360752
45.468	0.0498864
45.4685	0.588938
45.48	0.00708095
45.5021	0.0194305
45.5117	0.068294
45.5575	0.00128164
45.5677	0.466714
45.5792	0.189112
45.5796	0.00346399
45.5814	0.125328
45.9977	0.00453165
46.0035	0.0729615
46.0449	0.0376091
46.0941	0.0351719
46.1059	0.105355
46.6924	0.00514978
46.7181	0.00439661
46.7413	0.0140784
46.7802	0.00145153
46.8091	0.188801
46.8192	0.0156356
46.8323	0.0821496
46.8347	0.00164788
47.5711	0.0331034
47.5785	0.00256365
47.6743	0.0121071
47.6746	0.0163043
47.7107	0.00843087
47.7586	0.031656
47.7588	0.012628
48.4521	0.0287014
48.4956	0.0195348
48.5523	0.118836
48.6811	0.0017446
48.7377	0.0488365
48.828	0.0044759
49.2213	0.00280125
49.3669	0.0235171
49.8679	0.00381456
49.9623	0.00365461
50.0197	0.0295046
50.0602	0.0383164
50.0916	0.00221912
50.123	0.00159907
50.1581	0.0190164
51.4128	9.04059
51.4427	3.86185
51.4707	0.0206949
51.5281	0.00605216
51.5399	9.2138
51.5574	0.0117084
51.5731	9.23751
51.5864	9.68021
51.5865	0.0185767
51.5977	0.0232531
51.6121	4.39424
51.6154	8.52252
51.6643	0.00263515
51.8052	0.0111062
51.8489	0.0126216
51.9457	0.00103838
51.9673	0.0186958
51.9677	0.039013
51.9999	0.0351325
52.28	0.0480789
52.3362	0.00865065
52.3838	0.00833881
52.4168	0.00531724
52.4659	0.0237212
52.4767	0.00208112
52.9246	0.0043033
53.0096	0.00108291
53.0736	0.0161856
53.0817	0.00397824
53.1161	0.0258782
53.1824	0.0179803
53.209	0.0255851
53.2321	0.00159404
53.7586	0.00741044
53.8638	0.0437933
53.9113	0.0142323
53.9638	0.00938193
54.6021	0.0352635
54.6455	0.00231105
54.6899	0.00610739
54.7045	0.0224354
54.72	0.00513044
54.7263	0.00208412
54.7684	7.67772
54.7847	0.0035469
54.8437	31.0143
54.893	16.7405
54.9045	31.9724
54.9243	27.7331
54.9508	7.59056
54.9577	29.0189
54.9648	29.5814
54.9865	15.2329
54.9943	14.3536
54.9994	0.0050676
55.9476	0.0117989
56.091	0.0191939
56.1065	0.00690609
56.7485	0.0245508
56.872	0.0664982
56.8752	0.0033094
56.9092	0.0028278
57.2899	0.0128491
57.3811	0.0168551
57.4239	0.0269064
57.4512	0.0207315
57.4514	0.0132382
57.5021	0.0100332
57.5281	0.00103136
57.5319	0.00813071
57.5423	0.0479442
57.6252	0.0424746
57.6287	0.00188522
57.7705	0.00663888
57.814	0.0118384
57.8741	0.0197953
57.8908	0.00511775
58.7884	0.00139429
58.7889	0.00169671
58.9146	0.0181674
58.9277	0.003424
58.9476	0.00359022
58.9522	0.0303353
58.9669	0.00157871
59.0414	0.00226436
60.1464	43.4403
60.2024	86.8933
60.2794	0.0302628
60.28	0.00710332
60.2989	0.0361029
60.3551	85.8317
60.3591	43.8554
60.4368	0.0051822
60.4457	0.00493005
60.4461	0.0855767
60.5683	0.00244521
60.6028	0.00494609
60.6318	0.0282092
60.705	0.00158663
60.9511	0.0335932
61.0042	0.00228149
61.0093	0.022853
61.0479	0.00143512
61.0864	0.0177006
61.1093	0.0132134
61.1267	0.0623892
61.1284	0.037325
61.5425	0.0121969
61.6785	0.00172557
62.229	0.00366978
62.3967	0.0147508
62.397	0.019775
62.4399	0.060772
62.5022	0.00155077
62.5023	0.00641486
62.8916	0.00898254
62.9657	0.0107774
62.9873	0.0342997
62.9935	0.00167316
63.07	0.0467399
63.0706	0.00368448
63.0859	0.0175168
63.1637	0.00105105
63.1701	0.00211311
63.1816	0.00298014
63.1918	0.762234
63.2072	0.00443099
63.2227	1.3955
63.2516	0.507259
63.2521	0.00818903
63.2661	0.574128
63.3151	0.820805
63.3368	0.831948
63.3468	0.0202815
63.3821	0.00594233
63.3897	0.342949
63.4134	0.98946
63.4136	0.00746582
63.4264	0.854585
63.4295	1.98742
63.4319	1.0773
63.4371	0.493707
63.6834	0.030346
63.7278	0.0301712
63.8304	0.00153
63.8493	0.0155694
64.1596	0.00164148
64.1929	0.0145019
64.2809	0.0108415
64.3043	0.0246452
64.3061	0.0360014
64.3069	0.0168131
64.3295	0.0208079
64.3689	0.00681048
64.3858	0.0365251
64.413	0.00341179
64.4136	0.156642
64.4362	0.0113595
64.4381	0.0461186
64.4425	0.0025686
64.9322	0.0105502
65.0415	0.00272628
65.0479	0.00625304
65.1259	0.0247548
65.1309	0.00318148
65.1588	0.00454038
65.19	0.00726264
65.5418	0.00215212
65.6051	0.0161011
65.6909	0.0231337
65.7978	0.00101873
65.8322	0.00424698
65.8379	0.00852519
65.8443	0.0903853
65.852	0.0058755
65.9502	0.00482157
65.9624	0.0134901
66.0431	0.0032168
66.0649	0.0080352
66.1021	0.00514627
66.104	0.00176239
66.3955	0.00144968
66.4648	0.00367968
66.4653	0.0193296
66.5159	0.0239658
66.5162	0.0300352
66.9309	0.0167055
67.0969	0.00347886
67.1174	0.00546565
67.1283	0.00904778
67.1616	0.00196635
67.1713	0.0020906
67.6831	0.0264783
67.7275	0.00300944
67.7917	0.015699
68.1354	0.00418568
68.1964	2.98005
68.2235	3.55268
68.2721	3.13304
68.3306	3.03032
68.3454	0.00107165
68.3455	3.58599
68.3791	3.36908
68.3942	0.00420181
68.4178	0.0292335
68.4678	0.00549008
68.5913	0.00193462
68.6502	0.01395
68.6732	0.00236319
68.7051	0.00806347
68.7189	0.0271921
68.8927	0.0119769
68.9989	0.00218811
69.114	0.00150078
69.4637	0.00169623
69.5044	0.0301209
69.6313	0.00403243
69.6856	0.0215279
69.7131	0.00199669
69.7235	0.0114303
69.7674	0.0102316
70.3472	0.014001
70.7127	0.00218727
70.7385	0.00504652
70.7805	0.0330942
70.7811	0.0189525
70.8044	0.00687553
70.9733	10.0144
70.9784	0.00667244
70.9904	0.0132818
71.0075	4.32879
71.0081	0.00274796
71.0299	0.0420601
71.0357	0.00194384
71.0462	0.0289495
71.1387	0.00206443
71.1836	8.31384
71.2112	0.00731584
71.2351	10.396
71.2486	9.60862
71.2703	5.36682
71.2876	9.32013
71.3932	0.00609907
71.6024	0.00118661
71.6382	0.00148767
71.9705	4.80169
72.0028	0.00115543
72.0317	2.78622
72.1099	5.82823
72.1509	4.94106
72.1847	4.55773
72.1985	0.00148979
72.2206	4.42371
72.2288	0.0102078
72.2407	3.05728
72.6272	0.0148319
72.6358	0.00605215
72.7544	0.00222927
72.8554	0.0101553
72.8912	0.0216971
72.9146	0.00192097
72.9177	0.0129747
72.9489	0.00648289
73.1842	0.00802648
73.4897	0.00328677
73.5034	0.0450242
73.604	0.0147225
73.7142	0.00243003
73.7427	0.0209914
73.7957	0.00814738
73.8074	0.00441738
74.1599	0.0149965
74.4226	0.0032694
74.4961	0.0101985
74.5519	0.00545512
74.6605	0.0055259
74.6806	0.00813964
74.6871	0.00161941
74.7261	0.00602961
74.728	0.00149032
74.7575	0.00163639
74.7936	0.00840566
74.8156	0.0039865
75.323	0.026029
75.4604	0.00575122
75.6531	4.34288
75.84	0.00210011
75.8869	0.00264368
75.9267	4.32579
75.9338	0.0054496
75.9803	8.88788
76.0263	0.00174438
76.0825	0.0344696
76.2499	0.00250483
76.2711	0.0137459
76.2888	0.00687354
76.311	0.00177551
76.3574	0.00883709
76.4886	0.00855644
76.6223	0.0186535
76.6777	0.00868246
76.7025	0.00426808
76.7027	0.0240173
76.9587	0.00535176
77.1678	0.00774974
77.1971	0.00447618
77.3016	0.00224769
78.2322	0.00441529
78.2571	0.00288246
78.2901	0.0226235
78.3172	0.00120207
78.3569	0.00343915
78.3635	0.00143701
78.3771	0.00690258
78.4113	0.00346398
78.4303	0.00176692
78.4328	0.00871512
78.4488	0.380859
78.4559	0.00627724
78.4753	0.0102851
78.5165	1.33298
78.5171	0.00432765
78.5334	0.892173
78.5507	0.00978312
78.5627	0.00960712
78.5632	0.0733582
78.5773	0.00726906
78.6177	0.686818
78.6309	0.0414263
78.6423	0.0380798
78.6432	0.00354133
78.6541	0.0144573
78.7048	0.200171
78.7132	0.153124
78.7606	0.00240416
78.7653	0.00165356
78.7702	1.50608
78.7853	0.776088
78.7856	0.0037484
78.7867	0.604395
78.7874	0.00334565
78.8889	0.0276206
78.9509	0.00699014
78.9581	0.00670373
79.1616	0.0107283
79.1703	0.0121383
79.4147	0.0183475
79.506	0.00309136
79.5579	0.014885
79.5803	0.00789025
79.6221	0.00640545
79.6796	0.00909487
79.7013	0.00317352
79.7078	0.0230787
79.7141	0.00177311
79.7788	0.0144787
80.0092	0.00585189
80.1557	0.0220356
80.2058	0.0542922
80.2562	0.00200003
80.2565	0.00937119
80.3828	0.0228208
80.3971	0.00587646
80.6226	0.00241935
80.6405	0.00128599
80.8979	0.00167731
80.9203	0.00813068
80.9415	0.0762316
80.9904	0.00998692
81.0063	0.00137573
81.0566	0.0107185
81.1054	0.00707544
81.2374	0.00539503
81.455	0.0214624
81.5965	0.0196878
81.7515	0.00149476
81.8975	0.00539984
81.9647	0.00451695
81.9656	0.00772556
82.0033	0.00255819
82.0259	0.0123141
82.0575	0.00456962
82.0587	0.00362626
82.0771	0.00334624
82.1059	0.0165987
82.1773	0.00473526
82.2015	0.0138408
82.2079	0.00590252
82.2085	0.00237789
82.2285	0.00341098
82.5333	0.0165349
82.5975	0.00542622
82.7446	0.0131372
82.8045	0.0136164
82.8329	0.00149703
82.8372	0.0574617
82.9885	2.11332
83.0252	2.72509
83.0601	2.29551
83.1238	0.00683831
83.1254	0.00120985
83.1488	0.00658055
83.1555	2.34666
83.2076	0.0157352
83.2314	1.98398
83.2533	2.1759
83.2923	2.15016
83.3077	0.0161224
83.3158	0.00420446
83.3342	2.24094
83.3534	2.41902
83.3606	2.0264
83.365	2.16752
83.3675	2.3098
83.4057	0.00154546
83.4061	0.00227752
83.4145	0.0383287
83.5828	0.0043984
83.6287	0.00294178
83.6458	0.00244334
83.7038	0.00139741
83.7807	0.00364555
83.8942	0.0194446
83.9337	0.00384826
83.9389	0.00103464
84.0031	0.004589
84.0287	0.00686388
84.0422	0.0125224
84.3015	0.0144859
84.5062	0.0152115
84.5284	0.00526615
84.5626	0.0119156
84.5802	0.031545
84.6303	0.00140726
85.0808	0.00352596
85.166	0.0144294
85.2045	0.0166517
85.2471	0.014837
85.668	3.95175
85.7069	6.40995
85.7629	3.82746
85.7669	0.0138596
85.7699	0.00343941
85.7925	0.0025063
85.797	4.46339
85.8135	0.0136586
85.846	4.45108
85.8601	4.21034
85.8634	0.00897111
85.9029	4.09409
85.9173	3.35622
85.9293	0.00110651
85.953	3.81461
85.9655	0.00507101
85.9956	0.00176804
85.9965	3.7855
86.0051	7.61494
86.0308	4.03611
86.0393	7.1461
86.0525	4.26848
86.0589	0.0022289
86.064	4.44346
86.0648	0.00594767
86.0693	4.65368
86.0818	6.44621
86.0882	6.5712
86.0924	0.00447807
86.0928	3.75785
86.0957	0.00493699
86.8536	0.00207609
86.8751	0.00706515
86.9941	0.0126865
86.9952	0.00669388
87.007	0.00162391
87.0665	0.00579197
87.0674	0.00176648
87.2986	0.00242982
87.3087	0.00386739
87.5	0.00916285
87.5479	0.00686973
87.5855	0.00111945
87.646	0.00703021
87.6656	0.00546758
87.8435	0.00679707
87.997	0.00657416
88.1051	0.00614167
88.11	0.0212786
88.1329	0.00699005
88.1331	0.0036759
88.1833	0.0130771
88.2798	0.0265071
88.4027	0.00585111
88.4619	0.0331137
88.8663	0.00279092
89.0198	0.00139749
89.0604	0.00279306
89.0934	0.00454545
89.1652	0.00435253
89.2078	0.00296978
89.2317	0.00105857
89.2687	0.00136069
89.2915	0.003248
89.3239	0.00234756
89.3312	0.0104521
89.3767	0.00963027
89.409	0.00227012
89.4107	0.0168124
89.4512	0.00246928
89.4854	0.0116104
89.4907	0.00213142
89.4921	0.00445094
89.9575	0.0193102