File: xy_files/Mn23FeO32.xy
# 2-theta (degrees)	Intensity
8.80467	0.0529244
8.81224	0.0698461
10.5649	0.00503339
14.0982	0.0262599
14.1227	0.0443933
15.8586	0.0504201
15.88	0.057271
17.3825	0.00537148
17.3941	0.0140653
17.3977	0.00554522
17.6343	29.3689
17.6619	30.2811
17.6653	30.4519
17.6771	28.2713
18.6911	0.00329872
21.221	0.011905
21.2433	0.01653
21.498	0.0164571
21.5363	0.00109824
21.8537	0.0128396
21.901	0.0265363
21.9076	0.026708
21.9169	0.00448497
23.0049	0.00431508
23.7744	0.00798901
23.7863	0.00300937
24.6166	0.0113115
24.6363	0.052885
25.5902	0.0205758
25.593	0.00525777
26.627	0.00338949
27.558	0.0024221
27.5705	0.0195763
27.5955	0.0198699
27.5982	0.009094
28.3942	48.9339
28.4156	48.7916
28.4533	47.2609
28.4658	47.1871
28.905	0.0173391
28.9639	0.0383274
30.1739	0.0102192
30.1943	41.5577
30.2095	0.0286449
30.2133	42.4895
30.3754	0.0239808
30.4126	0.00259431
30.4321	0.0146761
30.4504	0.00110045
30.635	0.00332365
30.6618	0.00309193
30.6925	0.044255
31.5247	0.00130102
31.5311	0.00439677
31.5381	0.00125831
32.0315	100.0
32.0668	0.00405479
32.0698	97.9036
32.0757	97.9419
32.105	96.068
32.6797	0.0500915
33.4793	0.00275358
33.5118	0.0258821
33.8804	0.0812894
33.9035	0.0138608
34.2661	0.00109098
34.2902	0.0017357
34.3101	0.00154856
34.321	0.00432684
35.1591	67.5703
35.1819	66.4492
35.1889	67.6253
35.206	69.5957
35.2081	68.8293
35.2135	66.7516
35.2322	69.8626
35.2325	68.8019
35.7044	19.1596
35.7617	18.1811
35.7689	17.9969
35.7934	17.7375
36.1987	0.00106168
36.2148	0.00123494
37.1455	0.00139935
37.2006	0.0201086
37.2449	0.00124499
37.4087	0.00697328
37.9041	94.4222
38.2932	0.0103304
38.3063	0.00838219
38.3191	0.00930764
38.3243	0.00163368
38.329	0.00204763
38.3339	0.0100594
38.7755	0.00208862
38.7984	0.00125869
39.2785	0.00564639
39.3619	0.00333274
39.3664	0.00359089
39.4361	0.0160846
39.4803	0.0111351
40.0015	0.00348218
40.0071	0.00997749
40.3485	0.00313469
40.3971	0.0037116
40.6397	0.00367652
40.6444	0.00316395
40.7028	0.0102268
40.735	0.0104122
40.7367	0.0061033
41.3749	0.00876625
43.2024	0.00441196
43.2171	58.7885
43.2255	0.00435828
43.2642	58.7122
43.2828	0.00278339
43.2965	0.00551063
43.4238	0.00203389
43.5692	0.00310705
43.5699	0.00878689
43.5919	0.0616024
43.6045	0.00195885
43.6267	0.0039837
43.6315	0.00173788
43.8032	0.00332605
43.8209	0.00423995
44.5573	0.148051
44.5848	0.154874
44.5931	0.171607
44.625	0.191496
44.6576	0.199475
44.6702	0.00687879
44.6716	0.199085
44.6729	0.160634
44.6914	0.173774
45.161	0.00207443
45.1792	0.00153835
45.1832	0.0108127
45.2573	0.00355343
45.2901	0.00600059
45.6553	0.00130805
45.6771	0.0063292
45.703	0.00199122
45.708	0.00202717
46.013	0.00773143
46.0344	0.00789303
46.2867	0.0044955
46.2989	0.0027791
46.3111	0.00269489
46.362	0.0257788
46.9209	0.00362156
46.9311	0.0038191
46.9429	0.00455062
46.9616	0.00467973
47.0621	0.0710642
47.0627	0.0340327
47.067	0.0401037
47.4281	0.00828117
47.4776	0.0108078
48.6507	0.00163297
48.6531	0.00323948
48.6686	0.0014103
48.6829	0.00353079
48.7662	0.00459793
48.7976	0.00927939
48.8425	0.00359848
48.8485	0.00370696
48.8941	0.00727878
48.9135	0.00266807
48.9641	0.00994143
49.0071	0.00402049
49.1354	8.48113
49.1827	0.0159826
49.2113	8.52767
49.2222	0.021138
49.2224	8.51954
49.2729	8.70935
49.5848	0.00102135
50.4162	0.00231255
50.4297	32.5984
50.4716	31.9201
50.4784	31.826
50.514	30.0869
51.1352	0.00263574
51.1377	0.00592743
51.2333	0.00864236
51.2535	0.01294
51.2751	0.0129534
51.2855	0.00887797
51.4386	0.00588951
51.4422	0.0108483
51.4977	0.010398
51.5097	0.00755193
51.5113	0.00529604
51.5359	0.00570469
51.5453	0.00581868
52.487	6.98138
52.5202	6.96098
52.5413	7.325
52.5797	7.30521
52.5819	6.98894
52.588	7.17126
52.6045	6.96989
52.6158	7.15498
52.9094	0.00344574
53.5523	0.00571924
53.5865	0.00244078
53.6308	0.062399
53.6555	0.0282762
53.669	0.00658633
53.6794	0.00424576
53.915	0.00314799
53.9262	0.00394683
53.9537	0.00543926
53.9554	0.00380566
53.9657	0.00312831
54.0013	0.00174159
54.0913	0.0012294
54.4511	0.0140557
54.5022	0.00931647
54.754	11.8974
54.8462	12.0448
54.8577	12.1076
54.8737	0.00335176
54.8972	12.1372
55.2638	0.00386905
55.2946	0.00609545
55.3373	0.00635485
55.3394	0.00327244
55.7126	0.00802761
55.7683	0.00485552
55.769	0.00494476
55.7813	0.00698501
55.8149	0.00305037
55.9836	0.0312084
56.0536	0.00786917
56.0557	0.00764709
56.333	0.00149364
56.3421	0.00884026
56.8738	22.8101
56.8952	22.3687
56.9229	22.1629
56.93	22.8269
56.9341	22.7174
56.9567	22.1211
56.9781	21.9776
56.984	22.78
57.671	0.00143222
58.2618	0.00177837
58.3088	0.00588825
58.344	0.00182978
58.3945	0.00156715
58.4057	0.00438701
58.5096	0.00333142
58.5399	0.0393303
58.552	0.00531062
58.5559	0.0157074
58.5793	0.0385865
58.587	0.0055527
58.6493	0.00155853
58.6647	0.0285449
58.7491	78.5952
58.7836	0.0298581
58.7967	78.439
58.8806	78.4021
58.8884	0.0188619
58.9085	78.359
59.419	0.0149202
59.7959	0.00327127
59.8635	0.588657
59.8882	0.60745
59.9009	0.00146573
59.9064	0.351044
59.9371	0.350256
59.9936	0.595123
60.0001	0.616022
60.0199	0.584878
60.0254	0.00116295
60.0324	0.58681
60.0468	0.00338178
60.336	0.00216414
60.524	0.0280056
60.5299	0.0107038
60.5504	0.0108766
60.5761	0.00271364
60.5788	0.0282199
60.599	0.0104902
60.6443	0.00918608
60.6572	0.0128962
60.755	0.00298357
60.7835	0.00293971
60.8522	0.00550269
61.3309	0.00243094
61.3454	0.00155839
61.4016	0.00249606
62.7246	3.49989
62.7408	3.50472
62.7657	0.00221589
62.7721	0.00172566
62.7785	0.00978803
62.787	61.316
62.7916	0.00234318
62.8195	3.83616
62.8215	3.83794
62.8253	0.00175274
62.83	61.3198
62.8362	0.00126096
62.8793	0.00694149
62.89	0.00139656
63.1651	0.00659253
63.197	0.00567775
63.2401	0.0222104
63.2813	0.025124
63.3125	0.0212405
63.3255	0.0173895
63.3446	0.0315666
63.3583	0.00151821
63.367	0.0320818
63.5672	0.0013648
63.6011	0.00139902
63.7861	0.99085
63.802	0.00544775
63.8194	0.829609
63.8471	0.990396
63.8839	0.79993
63.8873	0.00968
63.9169	0.829252
63.9235	0.754946
63.9289	0.00101894
63.9603	0.833009
63.9704	0.733274
64.2729	0.00356552
65.0651	0.00172628
65.1243	0.00712547
65.2432	0.0013311
65.254	0.00106537
65.2679	0.00119088
65.7387	0.619101
65.7752	0.604036
65.7969	0.557347
65.7977	0.577084
65.8165	0.527788
65.8311	0.535892
65.8376	0.542209
65.8473	0.529172
66.0796	0.0365548
66.1737	0.0356822
66.1829	0.0412374
66.1934	0.0651764
66.4347	0.00101814
66.4411	0.00156436
66.9815	4.04303
67.0005	0.00954233
67.0027	0.00372526
67.008	0.00617882
67.0374	0.00356781
67.0699	4.20643
67.0835	4.23065
67.1333	0.00479076
67.151	4.11548
67.1521	0.00191718
67.1564	0.00137467
67.1594	0.012816
67.1731	0.0129166
67.1895	0.00643664
67.2599	0.0028648
67.4082	0.0125191
67.4304	0.00673132
67.4355	0.00478314
67.4417	0.012699
67.4782	0.0109029
67.5979	0.00591674
67.6199	0.0120355
68.1815	0.00259211
68.1995	0.00132935
68.4247	0.00498807
68.4811	7.5067
68.5005	0.00525806
68.5025	0.00233775
68.5041	0.00383461
68.5372	0.00182048
68.5522	0.0016922
68.5583	0.00178373
68.5839	0.00157331
68.6005	7.92957
68.6174	7.88855
68.6219	0.00313299
68.6341	0.00127802
68.6906	8.02328
69.1509	0.00214136
69.249	0.00479718
69.2821	0.00315166
69.2975	0.00298582
69.541	0.00404687
70.2622	2.55127
70.2867	0.0122833
70.3312	0.00709296
70.346	2.54204
70.3518	2.54583
70.4222	2.54011
70.5164	0.00393016
70.6189	0.00523504
71.2148	2.30861
71.2451	2.24686
71.283	2.30004
71.288	0.167962
71.3133	2.23799
71.3347	0.101463
71.3424	0.0995257
71.3802	0.0149409
71.3841	0.0910653
71.5278	0.00351868
71.9653	0.00145792
72.1609	8.10367
72.1981	8.04131
72.255	7.86277
72.2889	0.00772822
72.3021	7.74593
72.3092	7.67346
72.3281	7.5752
72.3299	7.66424
72.3491	0.00268369
72.3586	7.50144
72.5217	0.00157993
72.6116	0.00515332
72.6449	0.0142824
72.6507	0.0142696
72.6693	0.00183416
72.6733	0.00507304
72.7664	0.00114737
72.7915	0.00113654
73.3154	0.00494659
73.3357	0.00114931
73.3411	0.00112615
73.3475	0.00471931
73.4147	0.0134592
73.5862	0.00186818
73.5931	0.00280527
73.623	0.00144535
73.6475	0.00138182
74.3116	0.00115844
74.3223	3.44885
74.3769	3.63707
74.3937	3.39548
74.4347	3.65365
74.4397	3.49979
74.4526	3.6507
74.4974	3.64838
74.4979	3.42703
75.2067	0.00434547
75.2603	0.00421522
75.2858	0.00588857
75.392	0.00590624
75.4376	0.00353901
75.5053	0.0370635
75.5331	0.020543
75.6105	0.00321276
75.6316	7.16642
75.7327	0.00739355
75.7698	7.20784
75.7851	0.00224859
75.7871	7.20661
75.8463	7.23206
75.8481	0.00724312
75.8545	0.00325055
76.2142	0.00122089
76.3717	0.00553343
76.3785	0.00208434
76.5727	0.00841519
76.5838	0.00115663
76.6115	0.00835786
76.6157	0.824266
76.6541	0.00193666
76.6587	0.903361
76.6763	0.808839
76.7246	0.905919
76.7327	0.00434056
76.756	0.00282997
76.8085	0.892543
76.827	0.7758
76.8421	0.874624
76.8659	0.777844
77.2349	0.00226697
77.2559	0.00821767
77.3109	0.00838867
77.4431	0.00103265
77.4755	0.00434559
77.5544	0.00292985
77.5583	0.00284258
77.6211	0.00351416
78.3376	0.00177391
78.4658	0.00382126
78.6281	0.00570944
78.6938	0.00767218
78.7024	0.0038451
78.7063	0.0031768
79.1394	2.24769
79.1704	2.24837
79.2319	2.01196
79.2751	4.42044
79.2757	2.00539
79.299	4.44233
79.3205	0.00518581
79.325	4.14031
79.3305	2.19274
79.336	2.20115
79.3418	0.00240222
79.3563	4.13233
79.3789	0.00295872
79.3841	2.07146
79.396	0.00703229
79.4023	2.07076
79.4284	0.00925944
79.4325	4.38982
79.434	4.42204
79.4539	0.00146762
79.4631	0.00684852
79.4678	4.19404
79.4768	4.19873
79.484	0.00103985
79.5764	0.00808234
79.5791	0.00808025
79.5865	0.00349897
79.6298	0.00172497
79.6506	0.0027519
79.7255	0.00272025
80.0609	0.00149852
80.8414	0.00308045
81.0159	26.7327
81.095	0.0044044
81.1313	0.00165017
81.1374	0.00288142
81.1657	0.0016214
81.175	0.00760571
81.2907	0.0153669
81.3345	0.00198948
81.4273	0.00233829
81.5039	0.00223038
81.5373	0.00786926
81.9639	0.0198153
81.9695	0.00432621
81.9861	0.705042
81.9869	0.00417586
82.0197	0.0136613
82.0305	0.0222046
82.0518	0.84112
82.0649	0.023792
82.0766	0.783768
82.0819	0.801137
82.0889	0.0039337
82.1142	0.0138917
82.124	0.0269959
82.2229	0.00304574
83.1011	0.0018699
83.1333	0.0022373
83.199	0.00312052
83.2297	0.00227459
83.2396	0.00347117
83.2499	0.00120764
83.2718	0.0012254
83.3021	0.00163475
83.3515	0.00391806
83.3703	0.00342997
83.4153	0.00106531
83.4162	0.00113269
83.4401	0.00107492
83.483	0.00110123
83.5146	1.99613
83.5196	0.00115771
83.5319	0.00112857
83.5398	0.00364796
83.588	1.99008
83.5916	1.94335
83.6734	1.93506
83.7132	1.98263
83.7324	1.89093
83.7612	1.98192
83.7889	1.88736
84.0547	0.00217589
84.0665	0.00283102
84.1639	0.00116193
84.1975	0.00154612
84.2107	0.00608402
84.3261	0.00231813
84.4732	5.63473
84.496	0.00371038
84.5109	5.58119
84.5993	5.9164
84.6357	0.00830588
84.6449	0.00234122
84.6527	5.90158
84.6625	0.00835606
84.6852	0.00253812
84.6856	5.52445
84.697	5.46677
84.7397	5.94199
84.7669	5.91861
85.0614	0.001362
85.1622	0.00245387
85.264	0.00271824
85.2773	0.00242653
85.3206	0.0024223
85.8351	0.00136969
85.883	0.00133829
85.8963	0.00120903
85.9359	0.0040063
85.941	0.00136483
86.1078	0.00112599
86.1594	0.00263529
86.1678	1.70267
86.2103	1.69936
86.2732	1.71361
86.3002	1.70986
86.3097	1.66817
86.3146	0.00119196
86.3241	1.70513
86.3378	0.00447379
86.3385	1.70462
86.3397	1.66762
86.347	0.00458351
86.5671	0.00306508
86.6283	0.00606341
87.0024	0.0044337
87.0738	0.00340739
87.1363	0.0136654
87.1755	0.0132739
87.221	0.00948214
87.2212	0.00551344
87.233	0.00192337
87.243	0.0103746
87.257	0.00130266
87.2727	0.00475977
87.3472	0.00457372
87.3859	0.0015418
87.4218	0.0127941
87.4303	0.013027
87.4525	0.00301238
87.4868	0.00404614
87.627	0.00198802
87.763	0.00295332
87.7687	0.0083836
87.7804	0.00304872
87.798	0.0232829
87.8674	0.00120879
87.8781	0.0028131
87.922	0.00655586
87.9782	3.20049
87.9903	5.79546
88.0129	3.02662
88.0177	0.00416394
88.0845	3.22917
88.1224	3.01289
88.1398	5.78912
88.1426	3.08949
88.1438	2.99326
88.1556	5.82354
88.1569	0.00119453
88.1855	5.7767
88.2269	3.12306
88.2313	2.98825
88.5638	0.00143294
88.7221	1.58443
88.8273	1.51078
88.8441	1.50796
88.9302	1.51117
88.953	0.0036879
89.033	0.00379606
89.1494	0.00418818
89.1905	0.00416401
89.3241	0.00198512
89.3472	0.00166317
89.3516	0.00386992
89.3694	0.0050986
89.3879	0.00154906
89.4308	0.00204456
89.4585	0.00162964
89.6639	0.00138132
89.6893	0.00181966
89.7099	0.00171581
89.754	2.72316
89.7704	0.00317432
89.7997	0.00188942
89.8211	2.78401
89.8221	2.76455
89.8368	2.73261
89.8534	2.84004
89.8786	0.0048036
89.8997	2.77619
89.9081	2.7402
89.9288	2.869