File: xy_files/Mn2O3.xy
# 2-theta (degrees)	Intensity
18.4419	0.323281
18.447	0.312364
18.4864	0.28832
20.6458	0.0142978
20.6513	0.0165268
20.6823	0.0565208
22.6464	5.49891
22.6495	5.57063
22.6738	5.21077
26.1996	0.0332326
26.2278	0.0379858
26.2315	0.0363384
27.827	0.0223451
27.847	0.169218
27.8496	0.31724
30.8286	0.00139609
30.8348	0.00223016
32.2572	100.0
33.5849	0.00708022
33.614	0.0174272
33.6392	0.00241745
34.8985	0.10167
34.902	0.304631
34.9148	0.331334
34.9204	0.160004
34.9456	0.118396
34.9477	0.309359
37.3845	5.79328
37.3951	5.78775
37.4772	5.75922
38.5855	0.014595
38.5901	0.0582501
38.605	0.0215952
38.6082	0.00186102
38.6332	0.00985142
38.6707	0.0133632
39.7508	0.513295
39.7602	0.54495
39.8333	0.543803
40.8926	0.0260719
40.9356	0.02352
41.9957	0.155487
42.0029	0.192199
42.0143	0.205994
42.0239	0.166461
42.0774	0.148624
42.0798	0.170057
43.0889	0.00293951
43.0959	0.0144006
43.1114	0.00156149
43.1643	0.00671107
43.1661	0.0111527
44.1732	3.28622
44.1955	3.39136
44.1984	3.2203
46.2435	0.470364
46.2502	0.507459
46.302	0.435332
47.2409	0.168637
47.3137	0.18481
48.2358	2.15128
48.2396	2.2606
48.2693	2.31273
48.2773	2.19922
48.3023	2.07583
48.3066	2.07247
49.2231	0.00229356
49.3219	0.0041185
51.144	0.0152634
51.1476	0.0143109
51.1523	0.00967255
51.164	0.00920717
51.1702	0.013255
51.1982	0.0426628
51.2342	0.00516177
52.0666	0.430487
52.0772	0.632377
52.0784	0.587352
52.0906	0.396179
52.172	0.423002
52.1736	0.619865
53.9107	13.338
53.9724	13.713
53.9804	13.3706
54.8201	0.0143461
54.8272	0.0189684
54.8375	0.0252115
54.8773	0.048089
54.8847	0.117935
55.7459	0.631141
55.7493	0.663433
55.7757	0.623248
56.5975	0.0170121
56.6052	0.0442719
56.6274	0.00990109
56.639	0.0250199
56.6987	0.0125535
57.4658	0.142323
57.483	0.154606
57.4902	0.0681872
57.5345	0.074716
57.5402	0.0558296
57.616	0.127741
58.3512	0.00280943
58.4834	0.00569525
59.1991	1.13851
59.2151	0.337338
59.2155	1.17053
59.2226	0.0949799
59.2333	0.125362
59.2431	0.294888
59.2988	0.32879
59.3011	0.130846
59.3424	1.11983
60.8945	0.134642
60.9088	0.35623
60.9092	0.369438
60.9253	0.132191
61.0376	0.105972
61.0394	0.325786
61.7371	0.00416912
61.7385	0.0337464
61.7477	0.00283119
61.7636	0.128789
61.7993	0.0171333
61.8024	0.0228303
61.8311	0.0289302
61.8755	0.0849986
61.8768	0.00245018
62.5744	1.22609
62.5785	1.36367
62.6271	1.31856
62.638	1.0897
62.6628	1.10749
62.6696	1.41975
63.4357	0.0055328
63.4914	0.00991475
64.2263	7.62028
64.2406	7.34069
64.3513	7.60243
65.0457	0.00120456
65.0497	0.0150351
65.058	0.00160642
65.087	0.0142744
65.0963	0.0097321
65.1219	0.0163723
65.8398	0.906112
65.8517	1.12341
65.8671	1.11098
65.8825	0.88472
65.9712	0.848151
65.9747	1.15494
67.5026	3.44412
68.2597	0.105687
68.2649	0.0325759
68.2787	0.0129754
68.3671	0.0140986
68.3693	0.0199092
69.0598	0.204806
69.0637	0.119116
69.0831	0.122793
69.09	0.200176
69.1171	0.194801
69.1201	0.12829
69.809	0.00218368
69.8192	0.00957837
69.8989	0.00148448
69.9092	0.00429854
69.9888	0.00245465
70.5935	0.0632173
70.602	0.549248
70.6463	0.54287
70.6617	0.0689822
70.7209	0.0504922
70.7277	0.525458
71.3753	0.00434437
71.4004	0.0238709
71.4246	0.00918293
71.4988	0.005004
71.5052	0.00358411
71.5467	0.0298295
72.1447	0.837923
72.1545	0.0651099
72.1637	0.0708745
72.1647	0.0467208
72.1748	0.818213
72.1764	0.171121
72.1878	0.19775
72.2334	0.0600962
72.2423	0.0462611
72.2762	0.172384
72.3208	0.790598
72.3221	0.0883892
73.6999	0.413096
73.7083	0.087848
73.7389	0.10069
73.7523	0.421091
73.8122	0.393559
73.8172	0.0735063
74.4599	0.0028013
74.4786	0.00107147
74.5087	0.00497106
74.5416	0.00872016
74.6242	0.0072035
75.9727	0.00817613
75.9892	0.0081886
75.9984	0.00557909
76.0083	0.0172277
76.0182	0.00247652
76.0597	0.00683422
76.0663	0.00216575
76.1434	0.0019958
77.4918	0.0147871
77.516	0.00202125
77.5242	0.012066
77.5384	0.00179114
77.5671	0.00452761
77.6104	0.0021517
77.6133	0.004071
77.617	0.0343182
78.2433	0.186108
78.2475	0.0188439
78.2478	0.287006
78.2635	0.0579142
78.2639	0.0700589
78.2819	0.0260278
78.3197	0.295661
78.3341	0.198713
78.3593	0.186032
78.3691	0.245331
78.4072	0.0194387
78.4092	0.0626708
79.7284	1.16392
79.7545	1.04878
79.9572	1.16662
80.4787	0.0128717
80.4816	0.00518868
80.4996	0.0109148
80.5012	0.0934461
80.504	0.0571573
80.5521	0.0149966
80.5659	0.00240661
80.579	0.00775072
80.6137	0.082598
80.6499	0.00262496
80.7038	0.0379266
81.2242	0.806206
81.2303	0.186577
81.2437	0.199916
81.2498	0.786387
81.2776	0.200516
81.2873	0.0651607
81.2971	0.155996
81.3157	0.0681967
81.3194	0.0622505
81.3951	0.172681
81.4012	0.210902
81.4484	0.790265
82.0157	0.00107587
82.1416	0.00273593
82.7077	0.452472
82.7202	0.225684
82.732	0.206137
82.7462	0.471503
82.7693	0.126647
82.7774	0.148347
82.8402	0.117027
82.9331	0.429931
82.9347	0.188712
83.4677	0.00932229
83.4811	0.00337115
83.5236	0.0347747
83.6222	0.00885132
83.6271	0.00126155
84.2289	0.451804
84.2334	0.4074
84.2791	0.394731
84.29	0.454052
84.318	0.439202
84.3244	0.400697
85.6785	0.0113498
85.6798	0.459999
85.7039	0.474366
85.7911	0.0160883
85.8056	0.0158736
85.8915	0.413662
86.4194	0.00262317
86.4272	0.0359884
86.5288	0.0183406
86.5429	0.0353559
86.6307	0.0280512
87.1454	0.175106
87.1675	0.197459
87.1703	0.189175
87.1764	0.188297
87.1896	0.169778
87.1957	0.17983
87.1982	0.160338
87.2143	0.145305
87.3145	0.179084
87.3173	0.186847
87.3641	0.191383
87.3673	0.194819
87.8977	0.0109924
87.963	0.00322997
87.9823	0.00248325
88.0475	0.0052181
88.0571	0.00243483
88.639	1.86514
88.7388	1.96626
88.7517	1.89305
89.3639	0.00246102
89.3795	0.00865936
89.386	0.00355311
89.4126	0.00171684
89.4406	0.0155548
89.4487	0.0017765
89.483	0.0159328
89.5731	0.00338882
89.5751	0.0215441