File: xy_files/Mn3Fe5O12.xy
# 2-theta (degrees)	Intensity
12.9446	0.0215697
13.0487	4.49225
13.0975	0.0808163
13.1364	6.51812
13.142	0.0285146
18.3923	0.149916
18.5809	0.181966
18.6014	100.0
22.5323	0.0236532
22.5499	0.265253
22.6793	0.0775061
22.7081	1.27595
22.7484	5.37687
22.7584	0.0353927
22.7865	1.29427
22.8179	0.0450449
22.864	1.09845
22.8687	0.137873
22.912	0.0341564
26.0582	0.0351748
26.2705	0.530927
26.2798	0.0142238
26.3701	0.012593
26.4495	0.744021
26.461	0.0226905
29.1672	0.00358706
29.3042	0.613601
29.3105	0.637327
29.4116	0.00296927
29.4403	0.00491969
29.5542	0.691091
29.5742	1.09898
29.5804	2.9997
29.5808	3.26891
29.6078	0.684985
29.6343	1.84324
29.6826	0.0120631
32.1798	0.0910176
32.2383	0.118684
32.5052	0.141948
32.5785	0.457506
34.6802	0.35207
34.7058	1.22515
34.8027	0.517388
34.8088	0.477321
34.8289	0.442418
34.8454	1.2878
34.9833	0.438054
34.9849	0.0499295
35.0203	0.269894
35.0315	0.690443
35.0373	0.0120438
35.072	0.296441
35.073	0.00722515
35.1241	0.551918
35.1293	1.19276
35.1419	0.222145
35.1779	0.0426748
35.186	1.40531
35.1869	1.27091
35.2647	0.0895934
35.284	0.401277
35.3075	0.600784
35.3141	0.426276
37.2811	5.36503
37.6741	5.31326
37.717	3.90995
39.5307	0.00645564
39.5402	0.00924967
39.5476	0.396485
39.8129	0.00515045
39.8331	0.106055
39.8604	0.183067
39.868	0.00824889
39.8749	0.00791666
39.9214	0.296039
40.0128	0.412528
40.0153	0.0139038
40.0613	0.140699
40.0756	0.399092
40.1368	0.166241
40.1387	0.379381
40.1436	0.0121375
40.1565	0.0283402
40.1999	0.00445679
41.6983	0.105047
41.9671	0.297439
41.9691	7.43766
41.9814	11.2041
42.2313	0.138092
42.2659	0.291899
42.2781	0.0159189
42.2791	10.8517
42.3084	0.0490367
42.3839	6.6193
42.4131	0.453084
42.4974	0.0519183
43.9907	0.204615
44.058	0.0311368
44.1008	0.00345926
44.1636	0.535619
44.1869	0.00540743
44.2919	0.544717
44.4704	0.850402
44.5563	0.161349
44.5603	0.0109451
44.6405	0.438649
44.6822	1.29128
46.0003	0.0057093
46.0379	0.0816374
46.2218	0.00533248
46.3138	0.70083
46.3751	0.130279
46.4612	0.323152
46.4824	0.221697
46.5424	0.109522
46.6095	0.409795
46.7078	0.0902338
46.7178	0.214588
46.8103	0.451648
47.9181	0.0454774
47.9482	0.82753
47.9598	0.00118954
48.0523	0.00287414
48.0955	0.520975
48.1084	0.50019
48.1153	0.13099
48.1809	0.00477219
48.1998	0.251032
48.2591	0.0274785
48.3604	0.560965
48.3911	0.780596
48.4217	0.0117617
48.4409	0.00677004
48.4549	0.61296
48.4675	0.540417
48.5225	0.636994
48.559	0.287275
48.5823	0.215489
48.586	0.629107
48.6033	0.443779
48.6289	0.18448
48.6348	0.220381
48.6404	0.624572
48.6408	1.01025
48.6411	0.637127
48.6477	0.111753
48.6554	0.443815
48.6697	0.540617
48.6935	0.869905
48.763	0.479769
48.7867	0.411865
48.8004	0.163139
48.814	0.112889
51.7166	0.130562
51.7326	0.649762
51.8773	0.0611877
52.0966	0.15462
52.1376	0.636712
52.1499	0.426828
52.1729	0.426614
52.2727	0.0236655
52.2755	0.448706
52.3043	0.423683
52.377	0.277379
52.3815	0.00306312
52.4025	0.0841186
52.4197	0.34466
52.4765	0.265351
52.5073	0.55438
52.5084	0.424051
52.545	0.416627
52.5512	0.38562
52.626	0.374114
52.6565	0.410895
52.6648	0.207399
52.7146	0.508205
53.6018	7.1185
54.0656	2.14122
54.0859	6.11891
54.2836	6.51211
54.4573	1.70004
54.4825	6.55145
55.2993	0.0366679
55.521	0.00251165
55.5896	0.00188071
55.6024	0.668062
55.63	0.0030707
55.7133	0.429185
55.7266	0.0817003
55.7319	0.359435
55.7469	0.96411
55.8398	0.202534
56.0338	0.645852
56.0524	0.00937498
56.0938	0.427018
56.1083	0.00818603
56.1254	0.0420723
56.1523	0.00373248
56.1956	0.16941
56.2532	0.203842
56.2627	0.509501
56.2641	0.437337
56.2847	0.63837
56.3378	0.230833
56.3958	0.0102769
56.4024	0.0108931
57.2007	4.27817
57.2748	1.53182
57.2984	0.124733
57.4407	0.0354388
57.5049	0.0302196
57.6065	0.0656559
57.7638	1.21749
57.8432	0.175782
57.9354	0.189691
57.9459	0.592897
58.0051	0.430525
58.018	0.0559642
58.0351	2.63516
58.1279	2.38178
58.1939	0.295908
58.8405	0.00418663
58.8903	0.0314386
58.9003	0.00274961
58.9034	0.110916
58.9831	0.0113381
59.0269	0.35765
59.0965	0.0145807
59.1921	0.0549454
59.2048	0.00323819
59.2223	0.100382
59.3753	0.0810216
59.4335	0.0564869
59.4437	0.33962
59.4599	0.130697
59.4806	0.00236771
59.4837	0.150867
59.5409	0.400317
59.563	0.0528525
59.5752	0.324601
59.6064	0.346701
59.6676	0.502888
59.6793	0.602156
59.6797	0.0585822
59.7238	0.236408
59.7316	0.0622491
59.7335	0.147205
59.7892	0.0973569
59.7922	0.293993
59.8067	0.155623
59.8517	0.0344273
59.8652	0.0861925
59.8966	0.283993
59.9669	0.165375
59.9743	0.0698849
60.4749	0.174257
60.7821	0.292154
60.7963	0.0497944
61.023	0.112386
61.0875	0.134097
61.3434	0.0520921
61.3884	0.236054
61.4024	0.0927747
61.4032	0.130528
61.464	0.359087
61.5237	0.332581
61.6324	0.112124
62.1461	0.213693
62.1802	0.191884
62.2926	0.182028
62.3378	0.126823
62.5598	0.193159
62.5764	0.240929
62.748	0.248008
62.7745	0.0873607
62.7874	0.265085
62.8502	0.399911
62.8747	0.25984
62.9169	0.260126
62.9252	0.288082
62.9978	0.178659
63.0682	0.276871
63.1091	0.157374
63.1111	0.073882
63.1201	0.273381
63.1436	0.329512
63.1889	0.194112
63.2899	0.383914
63.3145	0.128544
63.3224	0.424051
63.3439	0.303936
63.8473	0.0353213
63.8728	0.0732081
64.3351	0.0358943
64.4277	0.458759
64.448	0.247407
64.4805	0.00402516
64.5953	0.0654098
64.6988	0.0212038
64.7788	0.696876
64.9223	0.00666151
65.0437	0.279353
65.3485	0.0705
65.3708	0.174917
65.6634	0.197098
65.6722	0.301702
65.7754	0.0546562
65.8301	0.116472
65.9362	0.0210492
65.9855	0.113779
66.1554	0.159019
66.2125	0.359315
66.2211	0.047512
66.2501	0.213931
66.2567	0.220673
66.2785	0.221799
66.3256	0.118546
66.3383	0.137464
66.4163	0.212201
66.4177	0.37374
66.444	0.0656805
66.4452	0.354897
66.5976	0.0536987
66.6205	0.0389606
66.6485	0.150298
66.7095	0.221812
67.3237	1.1138
67.4588	0.107483
68.0765	0.606932
68.2463	0.57759
68.6123	0.00458547
68.6577	0.0129927
68.6992	0.0069627
68.7962	0.189258
68.8229	0.276584
68.8276	0.0025072
68.8307	0.1505
68.8337	0.0539365
68.9252	0.0888319
68.9562	0.236098
68.9922	0.0222465
69.0477	0.0532463
69.0511	0.0502294
69.1367	0.0870804
69.1707	0.0527523
69.2233	0.0392508
69.2393	0.0439714
69.2668	0.00163565
69.3089	0.101258
69.4259	0.00441589
69.5267	0.0703677
69.5343	0.00255627
69.5771	0.185449
69.6005	0.109441
69.6361	0.0844105
69.643	0.294225
69.661	0.0466982
69.6616	0.0679073
69.6742	0.1566
69.6819	0.0550882
69.6913	0.0396341
69.7269	0.0461629
69.7485	0.071695
69.7586	0.00198388
69.7636	0.0791296
69.7654	0.026293
69.767	0.00172975
69.7696	0.00665959
69.8958	0.0623701
69.9211	0.127773
69.9496	0.0164166
70.0564	0.23056
70.374	0.0366806
70.6389	0.41761
70.665	0.0124836
70.99	0.123838
71.0161	0.748104
71.1093	0.00998761
71.1439	0.854076
71.1899	0.293999
71.3329	0.395871
71.3676	0.103693
71.5054	0.0526502
71.6635	0.109488
71.6745	0.057391
71.7528	0.145283
71.7615	0.00269
71.8256	0.157058
71.8348	0.107264
71.8366	0.0424254
71.8401	0.0437206
72.1392	0.00257725
72.1494	0.0357278
72.1831	0.0319127
72.2142	0.12525
72.2963	0.167518
72.3118	0.224865
72.3379	0.210429
72.3447	0.16763
72.4004	0.00358463
72.4011	0.0575339
72.4073	0.125963
72.528	0.0533032
72.5482	0.262368
72.5891	0.0265975
72.6209	0.0395182
72.6553	0.0919828
72.687	0.0442282
72.7084	0.00593809
72.7139	0.312147
72.7247	0.127724
72.7635	0.218332
72.7921	0.0854378
72.8019	0.118389
72.8105	0.0839206
72.8465	0.139652
72.8525	0.0542184
72.8565	0.00235624
72.8718	0.0572345
72.911	0.0182355
72.9473	0.128623
72.9702	0.0305911
72.9839	0.00294045
72.9874	0.0283321
72.9959	0.137242
73.014	0.00813805
73.0626	0.175823
73.0979	0.0241212
73.1459	0.00124913
73.1801	0.0202623
73.241	0.590035
73.4716	0.0241408
73.4862	0.0252577
73.534	0.0327774
73.5734	0.0913064
73.9023	0.0283103
73.9062	0.15302
73.9907	0.1289
74.0173	0.573174
74.0313	0.032376
74.114	0.130947
74.1164	0.0336712
74.2386	0.726918
74.2512	0.0299839
74.2812	0.158277
74.3673	0.127373
74.3868	0.633671
74.3889	0.0335936
74.4494	0.115637
74.5753	0.011298
74.6214	0.158649
74.6252	0.00913298
74.6777	0.184881
74.6936	0.240575
75.1139	0.134048
75.1363	0.0625472
75.5934	0.00250144
75.7859	0.066191
75.7993	0.0961936
75.8215	0.091902
75.8536	0.12957
75.977	0.104525
76.0446	0.154762
77.6773	0.135151
77.6884	0.035211
77.7161	0.0819801
77.7278	0.0733973
77.8405	0.0986411
77.86	0.0841161
77.8893	0.0282662
77.8921	0.0753741
78.2593	0.044508
78.2768	0.113362
78.2903	0.111803
78.3791	0.0709359
78.4716	0.108302
78.4752	0.035811
78.4813	0.0369691
78.5038	0.160405
78.5182	0.11415
78.5513	0.0488101
78.5947	0.0696371
78.6297	0.0328281
78.6544	0.0444809
78.6771	0.0805823
78.6835	0.0804507
78.6849	0.116952
78.6983	0.0128106
78.7245	0.128627
78.7265	0.0686988
78.7625	0.117093
78.7874	0.0871916
78.8987	0.0604458
78.934	0.0698678
78.9473	0.0572221
78.9495	0.056928
78.9521	0.0395272
78.9823	0.0161824
78.99	0.100446
79.0357	0.056758
79.0818	0.0552529
79.0869	0.0582641
79.1012	0.0339563
79.1857	0.0468361
79.1991	0.0596926
79.207	0.0100516
79.2232	0.105114
79.2269	0.0653597
79.2583	0.0267932
79.2961	0.0401225
79.339	0.00151135
79.4734	1.40659
80.4447	1.0368
80.5511	0.00355209
80.5713	0.168211
80.5998	0.0510951
80.8102	0.00654744
80.9626	0.0386155
81.0559	0.129051
81.081	0.0625256
81.0876	0.0387672
81.1143	0.0322329
81.1204	0.0466674
81.1621	0.00156688
81.1794	0.048057
81.2041	0.00152854
81.2454	0.0775617
81.3675	0.057173
81.4064	0.112465
81.4323	0.0201232
81.687	0.0667469
81.6888	0.268764
81.7221	0.145061
81.7272	0.0109322
81.7975	0.0217434
81.8108	0.127625
81.8264	0.0616544
81.8397	0.174344
81.8694	0.0729683
81.9312	0.127444
81.9324	0.0810641
81.9678	0.146574
81.9835	0.0869211
81.9927	0.108718
81.9979	0.0553938
82.0294	0.105465
82.053	0.111499
82.0557	0.158132
82.068	0.0528357
82.0839	0.00447673
82.0862	0.119652
82.109	0.184886
82.138	0.101226
82.1719	0.00135793
82.2402	0.126956
82.2514	0.0578134
82.2668	0.0190007
82.3125	0.0474107
82.3273	0.0858568
82.3481	0.01337
82.379	0.050666
82.4657	0.468649
82.496	0.454352
82.5126	0.906377
82.6099	0.0173489
82.8068	0.0836259
82.8267	0.779349
82.857	0.103651
83.0153	0.0293679
83.0422	0.196759
83.3969	0.811815
83.4009	0.102574
83.4959	0.0591853
83.4985	0.40251
83.5151	0.0197121
83.5198	0.17211
83.539	0.360952
83.5678	0.0684545
83.638	0.398772
83.6703	0.0573696
83.7077	0.0904412
83.7577	0.127706
83.7598	0.264663
83.8222	0.0167731
83.8582	0.0858316
83.8999	0.459803
84.0024	0.088677
84.0091	0.0278804
84.1112	0.0609775
84.2464	0.109378
84.3405	0.0384458
84.375	0.0576631
84.4273	0.107649
84.5909	0.141761
84.6746	0.127795
84.784	0.021233
84.8867	0.0285691
84.9478	0.0481633
85.0322	0.0167479
85.0771	0.165164
85.0798	0.157817
85.1162	0.024997
85.1303	0.0135761
85.1405	0.0330853
85.1594	0.0704503
85.1836	0.0778965
85.1855	0.110838
85.3603	0.0177903
85.364	0.0825926
85.4114	0.0679818
85.8391	0.207364
85.891	0.0108712
85.9612	0.375542
85.9806	0.0718201
85.9984	0.00194865
86.118	0.401473
86.3533	0.0507476
86.4545	0.0254668
86.4728	0.0202026
86.4783	0.0248676
86.5154	0.509083
86.5699	0.0589259
86.6543	0.0105942
86.6733	0.0371695
86.678	0.416929
86.6908	0.0742848
86.7242	0.0170816
86.7412	0.0778645
86.8184	0.102366
86.8329	0.036956
86.8347	0.094166
86.8363	0.204092
87.0194	0.0836357
87.1652	0.0309938
87.1926	0.0250407
87.2164	0.0395877
87.253	0.122845
87.2609	0.0755446
87.281	0.00158989
87.3206	0.0413167
87.4502	0.0514902
87.4958	0.0651713
87.5204	0.0605522
87.5518	0.0409987
87.6068	0.0189952
87.6434	0.0263153
87.6491	0.0769137
87.672	0.0223122
87.6794	0.0454836
87.746	0.0200009
87.7839	0.0743213
87.7973	0.0513751
87.8355	0.0738688
87.8414	0.00571395
87.8762	0.0506263
87.8808	0.189631
87.8814	0.0503264
87.9249	0.0544672
87.9445	0.0935868
87.9564	0.0523422
88.0018	0.0469876
88.0024	0.00321622
88.0255	0.0351511
88.0338	0.0440174
88.0398	0.0184697
88.0799	0.0735199
88.1504	0.0028011
88.1706	0.013109
88.1849	0.045201
88.1898	0.0213173
88.2219	0.0731227
88.2405	0.121128
88.2557	0.0481893
88.3026	0.0466958
88.32	0.0260075
88.3612	0.00181691
88.3937	0.0180404
88.4444	0.069153
88.4534	0.0390148
88.6678	0.0209761
88.7367	0.195918
89.0278	0.141488
89.1655	0.271999
89.3084	0.0489099
89.3332	0.00811911
89.3996	0.0184649
89.4734	0.0258447
89.5502	0.253772
89.66	0.0355735
89.7385	0.0176907
89.7782	0.08703
89.8518	0.0175106
89.8802	0.0912973
89.9126	0.0234543
89.9649	0.0420993