File: xy_files/Mn5(FeO3)4.xy
# 2-theta (degrees)	Intensity
6.78899	0.712224
13.602	0.0656137
14.8286	0.186136
14.8764	0.491612
14.8816	0.0107644
14.9041	0.428124
17.6532	48.0882
17.7149	46.2581
17.7849	32.9303
17.7872	35.2364
20.4636	0.0284144
20.4686	0.00548319
20.5866	0.00629359
21.5706	0.0757113
21.6058	0.119977
21.6443	0.0882863
21.7564	0.0577265
22.3166	0.265611
22.3829	0.340005
22.4762	0.177866
22.4949	0.0339895
24.6265	0.026046
24.6575	0.140682
24.6887	0.055603
24.8554	0.0202585
27.4004	0.0271164
27.961	0.00697048
28.0286	0.0505058
28.1344	0.080587
28.1634	0.0130418
29.059	54.992
29.0616	52.7695
29.1416	52.1758
29.1532	51.7701
29.2272	53.6559
29.3138	49.9782
29.913	0.031164
30.0112	0.0848445
30.0681	0.0397011
32.1968	0.0571053
32.313	0.151691
32.4004	0.148489
32.4194	0.200069
32.7924	0.0503326
32.8295	0.00456961
32.8603	0.0478155
32.8615	0.0568086
32.9319	0.0230679
32.9876	0.0267436
32.995	0.159069
33.0387	0.0498693
34.1664	92.7018
34.2118	99.42
34.2343	100.0
34.3117	85.08
34.315	89.2729
34.3187	91.614
34.3209	84.171
34.348	87.5619
34.371	0.0411779
34.3837	91.3973
34.3861	86.8621
34.3985	0.151446
34.4413	0.151708
34.4901	0.0776703
34.5031	90.2774
34.5337	91.1152
34.6634	0.0230463
35.7436	25.3962
35.8718	24.5694
36.0173	25.9636
36.022	24.6232
36.9397	0.224729
37.0182	0.107855
37.0654	0.15419
37.0707	0.17858
37.09	0.0528176
37.1064	0.0854237
37.3022	0.0192535
37.3202	0.0916398
40.2678	0.0301438
40.3011	0.108598
40.3472	0.00616426
40.4037	0.0579909
40.4471	0.0692895
40.5791	0.0454518
40.6204	0.107586
40.7515	0.0427666
40.7531	0.0145237
40.8019	0.215972
40.8215	0.0696628
40.878	0.349842
40.8969	0.120044
40.9038	0.0178998
40.9411	0.108979
40.9663	0.172182
40.9817	0.0230469
41.1682	0.0147705
41.1749	0.0469963
41.6191	82.2424
41.6295	82.2098
41.8782	80.0385
42.2114	0.00956189
42.25	0.00696151
42.4151	0.0613656
42.5378	0.00371009
43.9569	0.0388351
44.0316	0.0272334
44.1133	0.0957171
44.3508	0.143135
44.4735	0.00844497
44.5317	0.0488869
44.6032	0.355281
44.6336	0.416521
45.428	0.928699
45.4543	0.120004
45.5332	0.266835
45.5409	0.0752409
45.5519	0.206301
45.5886	0.356758
45.5966	0.00143538
45.6811	0.199963
45.6821	0.0532124
45.7063	0.253805
45.7231	0.0234379
45.7957	0.206701
45.8807	0.0821303
45.8831	0.0723713
45.8861	0.349003
45.9207	0.0754234
46.6945	0.0109437
46.755	0.013909
46.7621	0.00270677
46.8251	0.0156134
46.8616	0.028361
46.8687	0.0548184
46.8721	0.00199487
46.924	0.0714248
46.9952	0.0082005
47.0352	0.00937184
47.0938	0.0776174
47.3277	0.0289355
47.4193	0.00220604
47.461	0.0442869
47.4771	0.101432
47.4821	0.00437444
47.5925	0.0612061
47.607	0.00625875
47.6524	0.0186711
47.6872	0.0558463
47.7065	0.0658346
47.7216	0.0618867
47.8466	0.0162689
47.8818	0.15524
47.8912	0.0126158
47.9817	0.0432846
48.0256	0.22389
48.9014	0.0304417
48.9723	0.111797
49.0283	0.00305398
49.0658	0.00433118
49.0799	0.03692
49.1069	0.0308221
49.1582	0.00397963
49.2817	0.0233271
49.3427	0.0226176
50.4929	0.0078672
50.56	0.0458733
50.6272	0.0312255
50.7994	0.0590661
50.8052	0.231822
50.834	0.118233
50.8861	0.0454903
50.9721	0.00967122
50.9811	0.0186871
50.9878	0.0473773
51.0262	0.29397
51.0838	0.0736995
51.2013	0.0102846
51.2183	0.0282457
51.2796	0.0130471
51.2906	0.0330434
51.4098	9.49999
51.4728	8.29003
51.5554	7.80433
51.5769	9.07342
51.6643	8.77912
51.7186	8.74158
51.7236	8.53602
51.7307	8.59941
51.7732	7.95057
51.8262	8.92703
51.943	8.32869
51.9853	7.93849
53.4805	0.095801
53.5529	0.0257681
53.6656	0.0304277
53.8405	0.0535252
53.9629	0.0493259
53.9957	0.058731
54.0315	0.0130069
54.0387	0.0424991
54.252	0.026627
54.3116	0.00773691
54.3198	0.0154995
54.3713	0.00940196
54.8172	12.9496
54.8514	31.3519
54.918	32.9374
54.9219	32.1555
54.943	0.00934358
55.011	28.9738
55.0153	28.9385
55.0198	0.0881351
55.0233	14.4551
55.0251	0.100903
55.0324	29.1671
55.0482	0.11098
55.0522	27.3085
55.1005	28.3116
55.1576	0.0528488
55.169	30.6319
55.1764	0.154478
55.1778	0.189404
55.2331	0.116306
55.2357	30.3469
55.2575	14.915
55.2652	13.947
55.2715	0.00309937
55.3698	28.7019
55.4128	29.9182
55.4916	0.0436817
55.5163	0.148238
56.5474	0.0136407
56.7415	0.0408317
56.7532	0.00599816
56.8242	0.0286255
56.8272	0.106827
56.9364	0.00760843
56.9429	0.0310434
56.9463	0.0126857
56.9778	0.113091
56.9857	0.0612199
57.0387	0.0234767
57.0647	0.0221083
57.1118	0.0202057
57.2555	0.0601143
57.2734	0.0854233
57.3661	0.0221858
57.4004	0.00969002
57.7871	0.0234509
57.9368	0.00739325
58.1717	0.0614765
58.236	0.0295478
59.2113	0.0450455
59.273	0.0206118
59.4323	0.0498724
59.4459	0.158625
59.536	0.0831117
59.6025	0.0745389
59.6316	0.0191823
59.7678	0.0508565
59.7683	0.00582381
59.8039	0.0334833
59.8151	0.0143258
59.8288	0.0150148
59.8374	0.0450214
59.8823	0.0538556
60.0398	0.00755553
60.0694	0.0116336
60.2325	82.6695
60.2385	84.3912
60.2485	0.0416513
60.2744	0.0377216
60.4175	84.0122
60.4434	83.1895
60.6093	82.4472
60.6409	0.0392136
60.724	0.0600064
60.8037	83.3225
60.842	0.0425728
60.8428	0.0412435
60.9665	0.0465355
61.0205	0.0239307
61.0368	0.0607193
61.1019	0.146433
62.1516	0.0107483
62.3708	0.0421854
62.3733	0.00968919
62.3974	0.00364777
62.4431	0.0349361
62.5122	0.00895362
62.5654	0.0418272
62.5795	0.0236309
62.6314	0.0310886
62.6829	0.0336781
62.6907	0.0664397
62.6996	0.0402745
62.7599	0.00150752
62.8539	0.0293498
62.9011	0.0364104
63.2017	0.455234
63.2285	1.13681
63.2609	0.602944
63.2864	0.629415
63.3614	0.494435
63.3956	0.945921
63.4158	0.964122
63.422	0.71035
63.4327	0.948549
63.4745	0.895104
63.4786	1.19631
63.5199	0.9139
63.5227	1.1703
63.5283	1.40718
63.5654	0.667922
63.567	0.564552
63.6168	1.60266
63.7063	0.62341
63.7286	1.07726
63.7529	1.20172
63.7769	1.03723
63.847	1.06158
63.9482	0.848638
63.9659	1.03882
64.1936	0.0398503
64.2367	0.049428
64.3403	0.0933422
64.4024	0.00526162
64.4031	0.0302774
64.4196	0.0472125
64.4463	0.0399074
64.5494	0.0141296
64.5865	0.05825
64.6416	0.0196825
64.7018	0.061415
64.7755	0.00127257
64.7907	0.0536635
64.832	0.00301878
64.8427	0.00213225
64.8673	0.0175009
64.8734	0.0590857
64.8856	0.0585528
64.9536	0.0123289
65.0422	0.0259772
65.0934	0.0215705
65.1167	0.00612571
65.1825	0.0127078
65.2067	0.0758209
65.2367	0.00532906
65.3318	0.0333946
65.3435	0.0642676
65.3538	0.0146853
65.4136	0.0089393
65.4391	0.0493384
65.488	0.0133262
65.5375	0.00983492
65.5749	0.00165962
65.6702	0.0162733
66.0429	0.105492
66.0798	0.0442514
66.1459	0.0782235
66.2309	0.0159574
66.2781	0.0642653
66.4596	0.0136471
66.6761	0.00572463
66.7305	0.0117049
67.363	0.0159783
67.6315	0.0634225
67.6729	0.0145486
67.7486	0.013696
67.798	0.022555
67.8212	0.0178446
67.8358	0.0288271
67.8776	0.0233158
67.8906	0.0467517
67.9415	0.0718931
67.9649	0.00240675
68.0175	0.0621754
68.0301	0.0163095
68.0538	0.0557283
68.1953	2.82118
68.2623	0.0216731
68.2887	3.33758
68.3035	2.99008
68.3347	0.0452645
68.3544	2.94853
68.4011	0.00445678
68.4113	0.0346144
68.4142	3.02795
68.429	3.31195
68.4709	3.11512
68.5665	3.03899
68.5964	3.44045
68.7104	3.15563
68.7429	0.00576338
68.8265	2.80734
68.8291	0.011682
68.9008	0.0144989
68.9035	0.041618
68.9665	3.01458
69.0674	0.00705765
69.1972	0.0099677
69.2143	0.00520794
69.3163	0.0223212
69.8325	0.00794789
69.8586	0.00154311
69.9879	0.015649
70.0321	0.0593324
70.1024	0.0242384
70.1588	0.0489279
70.1681	0.0633905
70.1858	0.0124997
70.1912	0.00464412
70.2087	0.00326103
70.2179	0.00392631
70.2554	0.0333963
70.2587	0.028175
70.2795	0.0128925
70.3337	0.0346814
70.3339	0.0126997
70.4129	0.0264315
70.4221	0.0271841
70.4245	0.00604729
70.533	0.0193745
70.5518	0.00659832
70.5709	0.00414975
70.571	0.043395
70.5715	0.0357837
70.6582	0.00636152
70.7574	0.00736461
70.787	0.00689324
70.9799	8.74812
71.0571	8.61895
71.1644	10.4848
71.1716	0.0238921
71.2198	8.1747
71.2798	0.0575163
71.3541	9.58597
71.3997	9.05878
71.444	0.0221006
71.4608	0.0247872
71.4928	0.0120202
71.4954	9.04758
71.5063	9.36971
71.5578	10.2483
71.6259	8.80434
71.7453	0.00824909
71.7484	9.52915
71.7609	0.00355135
71.7988	8.63102
71.9624	5.62147
72.0163	0.014217
72.0697	5.67996
72.123	5.39378
72.3059	5.55299
72.314	4.52343
72.3227	4.70545
72.3278	5.49795
72.3921	4.6008
72.4463	0.00320619
72.4765	4.89492
72.4822	5.65831
72.5115	0.00680905
72.613	0.0285646
72.7288	0.018108
72.7467	0.0432075
72.7595	5.05596
72.813	0.0513729
72.8322	4.5867
72.9043	0.0958258
72.9349	0.019625
73.0143	0.0191443
73.1079	0.0234089
73.1403	0.0151189
73.5604	0.00779306
73.5635	0.0315256
74.9608	0.051471
75.0379	0.00215519
75.1858	0.0394181
75.2025	0.0247936
75.2067	0.0606442
75.2338	0.0983375
75.239	0.0195198
75.2444	0.0801055
75.2932	0.0118429
75.297	0.0321306
75.3513	0.0725061
75.5308	0.0044041
75.5473	0.00163737
75.6997	0.0153641
75.7262	8.14158
75.7439	0.0124958
75.7529	0.0163472
75.8112	0.0421738
75.8444	0.0250311
76.0247	0.00109785
76.0355	8.36681
76.103	0.048084
76.1136	0.00806313
76.1972	0.0106496
76.2947	0.00631596
76.3011	0.0522448
76.3873	8.72727
76.3908	0.0192776
76.3987	8.66446
76.4345	0.0405897
76.5184	0.0136442
76.6234	0.00879222
76.6574	0.00691442
76.902	0.00165485
77.6183	0.0108357
77.6637	0.00711963
77.7174	0.0034162
77.7544	0.0138744
77.8705	0.0183276
77.8948	0.0157068
77.9286	0.0387228
77.934	0.00615588
77.9464	0.0309312
77.97	0.0121826
77.9826	0.0119128
78.0479	0.0174592
78.1075	0.0244159
78.1173	0.00190175
78.2415	0.0239276
78.2949	0.0973626
78.295	0.0107323
78.3273	0.00111713
78.3303	0.00826037
78.3313	0.100357
78.3806	0.0454298
78.4484	0.0124018
78.458	0.0973995
78.5191	0.0321028
78.5276	1.66405
78.5632	1.20089
78.5931	0.067053
78.6341	0.0244527
78.6588	1.3741
78.6717	0.18941
78.6816	0.0692852
78.7322	0.617782
78.7777	0.133216
78.7827	0.148098
78.7986	1.48244
78.8154	0.001557
78.8215	1.33662
78.8241	0.0477858
78.8267	0.00503627
78.8842	0.0492612
78.9338	0.838924
78.9427	0.0635759
78.9557	0.00171388
79.003	0.0576514
79.0065	0.887797
79.0434	0.0041567
79.078	1.32607
79.1226	0.0319987
79.1868	0.876577
79.1969	0.0291403
79.354	0.0436706
79.4007	0.806738
79.4042	1.05851
79.4083	0.10289
79.4483	0.00288851
79.5254	0.00147451
79.5405	0.00766213
79.5493	0.00911583
79.5696	0.00297757
79.6676	0.00331067
79.7776	0.00143607
79.7864	0.00824524
79.8112	0.0477994
79.9532	0.00162107
79.9795	0.0184472
80.0794	0.00343288
80.0949	0.00127343
80.1691	0.0179925
80.2029	0.0162547
80.206	0.00260547
80.2686	0.0286475
80.275	0.00934087
80.2825	0.0394276
80.3386	0.0135508
80.3634	0.0171219
80.3635	0.0295114
80.3832	0.0129699
80.3991	0.00758216
80.4248	0.00378371
80.4274	0.00429999
80.4346	0.0121807
80.4459	0.0310017
80.45	0.00770104
80.4616	0.00162954
80.521	0.0104031
80.6207	0.0185435
80.6419	0.0247766
80.6743	0.0790262
80.678	0.0269738
80.7081	0.00429303
80.7182	0.0382422
80.7584	0.0360457
80.8546	0.0178426
80.9797	0.00584951
80.9888	0.00947742
81.0048	0.0305215
81.0616	0.0243416
81.1092	0.0354203
81.2391	0.0052081
81.2816	0.0291894
81.3345	0.0245937
81.4197	0.0220863
81.4854	0.0121284
81.5368	0.0413038
81.6258	0.0098777
81.6911	0.0383044
81.7375	0.0125351
81.775	0.00848142
81.8899	0.00747477
82.6866	0.0109138
82.7318	0.00190899
82.8234	0.0738436
82.9103	0.0345488
82.9197	0.0878637
83.0136	1.99697
83.0175	2.5093
83.0367	0.0158203
83.0706	2.17466
83.0735	0.0221346
83.1232	0.0121207
83.2038	2.18326
83.2051	2.06721
83.2114	0.0110494
83.2322	1.96826
83.3244	0.0392053
83.3252	2.15522
83.3706	2.28374
83.4146	2.19073
83.4195	2.38641
83.43	2.18676
83.4657	1.95817
83.5406	1.83389
83.5558	2.22523
83.5706	0.0100584
83.5728	2.19584
83.6113	0.0141285
83.6278	2.09938
83.6668	1.94086
83.6734	2.38946
83.8241	2.12971
83.837	2.1594
83.8817	2.20275
83.9637	2.18709
84.0608	2.09007
84.0915	2.21683
84.7388	0.0577433
84.8032	0.00469564
84.8545	0.0264243
84.8772	0.0102022
84.8983	0.0618705
84.9976	0.0175377
84.9991	0.0153822
85.0056	0.0490129
85.0765	0.0269786
85.1061	0.0449069
85.1652	0.0594775
85.1963	0.0536495
85.2212	0.03377
85.2232	0.00987007
85.2771	0.0152751
85.3208	0.0672274
85.4361	0.00415305
85.4445	0.0108955
85.4522	0.0068961
85.5722	0.0048479
85.6243	0.00199543
85.676	0.0113336
85.7068	0.00660252
85.7173	6.1703
85.7555	3.67782
85.7763	7.64512
85.8223	4.65408
85.8241	0.00444354
85.8509	3.94012
85.8838	4.41219
85.8938	6.8715
85.9341	0.023732
85.944	0.0012251
85.9691	0.0133181
85.9752	3.86655
86.0406	3.3614
86.0541	4.07154
86.0582	6.77588
86.0675	3.60543
86.0966	6.53328
86.1195	0.010232
86.1368	3.42966
86.1518	3.79403
86.1819	4.19879
86.1892	3.76215
86.2333	3.71003
86.245	3.79923
86.2586	4.32804
86.266	7.32079
86.2817	3.77577
86.3203	7.317
86.342	0.0162508
86.3473	3.7734
86.4281	6.88632
86.4367	3.94812
86.4404	0.00883864
86.4571	0.00571156
86.4777	4.29739
86.507	7.26763
86.5664	3.50187
86.587	6.33099
86.5945	3.59902
86.6905	6.44367
86.701	6.57286
86.7551	4.09204
86.8346	0.00313889
86.8722	3.75394
86.9063	3.78244
87.0121	0.00646242
87.0983	0.0135679
87.2176	0.00107737
87.3643	0.0549807
87.4771	0.00334928
87.5309	0.0339192
87.5759	0.00215606
87.7397	0.0175631
87.7999	0.039746
87.8053	0.00223659
87.8203	0.0388348
87.8341	0.019477
87.8761	0.0962415
87.8833	0.00285124
87.9278	0.00498147
88.1123	0.0118254
88.2698	0.0234166
88.274	0.0484525
88.2854	0.00290074
88.4017	0.00994525
88.4264	0.0499237
88.4527	0.0936774
88.6008	0.0176104
88.6503	0.0174085
88.6682	0.00226448
88.766	0.0133714
88.8725	0.0249915
89.3627	0.0112075
89.6631	0.0162337
89.8467	0.0036592
89.8718	0.00205584
89.8884	0.0181516
89.9382	0.0176104