File: xy_files/Mn5OF11.xy
# 2-theta (degrees)	Intensity
10.0392	76.8577
17.4312	87.9856
17.9179	14.4293
17.9336	24.3869
18.8365	50.5746
19.2599	56.8393
19.7354	15.7814
20.1565	44.209
21.8222	66.4147
22.1624	4.52356
22.9268	3.53021
23.346	100.0
25.0493	3.02105
25.115	47.8938
29.0067	3.56227
29.5542	4.96124
29.8264	0.253217
30.1241	24.9819
30.4357	1.93769
30.7529	31.9363
31.0174	93.0839
31.3263	4.67822
31.8128	2.24517
32.3848	1.37517
32.4118	7.28449
32.9463	4.75466
32.9621	4.58582
33.151	27.2188
33.7527	1.29028
34.221	22.9606
34.2801	13.4276
35.09	7.02282
35.2829	32.1465
36.257	1.63452
36.2937	72.8083
36.3263	2.50647
36.7932	15.1919
36.9616	3.45449
37.7464	10.7019
37.7469	1.91485
37.7994	0.550112
38.0202	2.68213
38.2075	2.85518
38.8623	1.8615
38.8919	0.936961
38.899	3.63086
39.0925	3.68191
39.1312	9.38505
39.1958	3.11069
40.0887	10.5458
40.5632	11.2691
40.9729	4.80291
41.0274	0.420495
41.3918	1.88732
41.7122	3.99766
42.0995	0.564845
42.4473	1.72131
43.3841	1.43186
44.1368	4.54481
44.3353	1.10968
44.4778	5.87902
44.4905	14.3864
44.6304	0.38022
44.8667	0.594907
45.213	10.9531
45.5878	0.30749
45.6872	23.0496
45.8583	1.43936
46.4729	6.82027
46.842	0.518637
47.4348	2.55509
47.489	6.3872
47.5002	3.68036
47.5352	2.85772
47.7387	0.735089
47.9064	1.87937
47.9259	0.245624
48.4194	0.507483
48.6279	27.8358
48.814	41.4369
49.2446	16.3649
49.7974	6.65
49.8153	2.25105
49.8245	2.1097
49.8478	33.3394
49.9003	0.507638
50.5249	0.177422
50.6145	2.25034
50.6884	4.82225
50.9255	0.457513
50.9566	4.68792
51.1391	40.3943
51.3457	0.456029
51.4077	2.80069
51.53	2.75152
51.5501	12.7778
51.5839	37.8641
51.602	2.23866
51.8867	0.859558
52.0983	2.21053
52.3392	0.648544
52.459	0.0602613
52.5097	1.33194
52.5591	1.54278
52.6409	1.32477
52.7209	0.942816
52.9422	4.95761
52.9433	0.27962
52.9899	5.07615
53.0341	4.87462
53.1094	2.12723
53.461	3.74869
53.5649	1.45853
53.8179	0.380398
54.0416	1.28949
54.0771	3.0948
54.2568	1.58691
54.3078	0.0958995
54.8048	3.80877
55.0315	5.73324
55.1306	8.73789
55.7029	0.82282
55.7554	2.89749
55.9426	2.79635
55.9437	0.0375775
56.6803	2.44324
57.0261	0.300538
57.1959	0.0581018
57.4618	0.669691
57.7617	0.00472298
57.7867	4.42033
58.0101	4.40539
58.029	1.77056
58.3562	3.14174
58.3739	0.460518
58.5833	0.330183
58.8021	7.02614
58.8335	0.8905
59.1351	0.0380768
59.2614	12.5069
59.4656	3.7975
59.5835	10.3282
59.7159	0.49414
59.8899	0.270875
60.1156	0.921073
60.2452	4.77011
60.4296	0.989269
60.4995	1.23675
60.5149	0.251304
60.5662	0.644452
60.5931	0.389739
60.8681	0.126855
61.3435	0.613946
61.3956	4.64275
61.7154	0.817333
61.7637	8.31885
61.8166	1.22986
61.8775	0.0304711
61.9562	1.3099
62.4131	4.14103
62.5073	0.157193
62.6284	3.82529
62.8698	8.6884
62.878	6.54681
62.9166	0.994521
62.9243	0.603625
62.9582	0.37234
63.2392	3.68788
63.2843	0.162261
63.3336	3.90284
63.4253	0.304988
63.5176	0.43264
64.0049	0.909976
64.0541	1.45565
64.2144	0.494579
64.4342	1.65851
64.4603	0.334646
64.5268	3.419
64.6566	4.2272
64.9913	18.377
65.3063	0.057856
65.3623	0.155899
65.4737	1.42184
65.6288	0.409279
65.7636	0.0218665
65.94	0.352733
66.0413	1.16408
66.2587	1.0255
66.3651	0.393197
66.478	8.80206
66.6097	0.525646
66.6733	2.29236
66.8192	1.02106
67.3112	0.161771
67.3995	0.505582
67.4413	8.96699
67.564	1.96605
67.7735	3.28658
67.7975	1.35532
67.8268	5.68415
67.86	0.112488
68.2207	0.193344
68.2491	1.22493
68.2791	2.32935
68.3594	0.860812
68.4608	1.43059
68.9316	0.07082
69.0225	0.321044
69.1009	0.603739
69.1377	0.202998
69.2019	1.26356
69.3155	0.355803
69.5425	0.529014
69.5782	3.96567
69.6197	2.66354
69.659	0.0685507
69.6655	0.189815
69.8329	0.21168
69.8811	1.839
70.0293	0.0556351
70.3852	0.788974
70.4236	1.55517
70.4602	2.9715
70.884	0.199606
70.9142	0.741701
70.9876	3.61366
71.2689	0.40271
71.2817	10.6081
71.289	0.418881
71.5601	1.06591
71.5924	4.09252
71.6344	0.0892576
71.7636	1.93766
71.9592	0.0239769
71.9639	1.05584
71.9964	0.18918
72.055	0.557644
72.0915	2.88688
72.1186	0.0421874
72.1233	0.428959
72.1485	1.21565
72.22	0.414731
72.2207	0.475703
72.2312	1.13592
72.4403	1.08652
72.5112	0.209662
72.6397	2.46328
72.9673	0.197572
73.0006	0.0938204
73.0999	0.299155
73.1005	4.05428
73.1112	1.4146
73.15	0.102186
73.2002	1.98571
73.3123	0.0912724
73.3973	3.6363
73.7661	0.648125
73.7868	0.906654
74.0303	0.789273
74.1572	0.928009
74.2629	2.3768
74.402	1.22826
74.5084	0.829919
74.6189	1.07083
74.7427	0.775036
74.8436	0.106408
75.1103	1.1105
75.1575	1.08637
75.2984	0.11135
75.4083	0.852694
75.5264	0.586656
75.5374	0.141143
75.8291	0.984877
75.9287	0.64135
76.111	0.351754
76.1112	0.487782
76.1781	2.53396
76.4139	0.12706
76.5854	0.143461
76.9148	0.864226
76.9163	0.561063
76.9684	0.236915
77.0347	0.0567551
77.0576	4.83633
77.1367	1.93412
77.4602	0.472437
77.5537	0.106973
77.932	0.579684
78.2753	0.499519
78.2853	3.4842
78.3024	0.347258
78.5019	1.27178
78.5304	1.67369
78.6878	0.730293
79.0507	2.83636
79.3089	1.41174
79.3109	2.32773
79.5508	1.54105
79.6121	0.111977
79.7134	0.752444
79.7854	0.501356
79.7887	0.00926883
80.1254	0.442958
80.3105	0.402028
80.3563	1.85395
80.4635	0.468302
80.4695	0.194139
80.624	3.39768
80.6252	1.60146
80.6867	2.67487
80.7557	5.73974
80.857	0.822276
80.9001	0.52869
81.0399	0.129209
81.1256	0.486364
81.164	0.228779
81.1707	0.131431
81.1843	0.231509
81.2499	0.477511
81.2883	0.498123
81.305	0.715236
81.3431	0.0896845
81.4241	3.86216
81.454	0.743336
81.53	1.49242
81.5857	1.0167
81.6741	0.648427
81.7726	0.956936
81.8939	1.40687
82.2173	0.523228
82.666	0.321629
82.7122	0.621349
82.8027	0.588321
82.8546	0.297566
82.9941	0.557359
83.1519	0.515894
83.3797	0.144551
83.4179	0.639129
83.4667	2.7149
83.4928	0.0183445
83.5107	1.52795
83.6036	0.313455
83.6727	1.11826
83.8028	0.587543
83.827	0.913514
84.0008	1.48806
84.0508	3.24461
84.099	1.15183
84.1427	0.658743
84.1787	0.619265
84.2085	0.765609
84.2628	0.103212
84.3622	0.501817
84.8865	0.45129
84.9932	0.31478
85.0654	2.20785
85.0934	2.12631
85.2874	1.73402
85.5028	0.536291
85.5133	0.251623
85.6792	0.962426
85.7567	0.594365
85.7999	1.05366
85.8241	0.730966
85.9604	0.937086
86.0815	5.31094
86.2295	0.290411
86.3059	0.752459
86.3866	0.00509295
86.3868	0.0646483
86.4	1.09172
86.5073	2.12499
86.5302	0.303605
86.5491	0.773528
86.7141	2.42524
86.792	0.374174
86.9713	1.07664
87.082	0.207048
87.2059	0.480356
87.2741	0.665942
87.2797	2.19197
87.3422	0.0590244
87.6774	0.151947
87.7643	0.236215
87.7789	0.641299
87.7807	0.0589691
87.8429	0.922292
87.9768	0.14296
88.0322	0.39646
88.0653	1.42921
88.0787	0.404666
88.1	0.971499
88.1866	0.746674
88.371	0.0509903
88.4723	0.457828
88.5331	0.299935
88.7047	0.198837
88.7054	0.895263
88.7291	1.47574
88.7838	0.979319
88.8495	0.580064
88.8497	1.3685
88.952	1.42233
88.972	0.365805
88.9925	0.583361
89.0607	0.490831
89.087	0.972244
89.1524	0.0361127
89.1866	0.941593
89.3397	0.193578
89.4362	2.51662
89.734	0.192005
89.8192	2.43543
89.8543	0.0472999
89.8963	0.307819
89.9278	0.600618
89.9529	0.749072