File: xy_files/Mn7Fe3O20.xy
# 2-theta (degrees)	Intensity
10.9898	0.00268467
17.3917	0.00156846
17.5057	0.00111797
17.5614	0.0113056
18.0466	0.00837949
18.3668	52.638
18.3748	52.4267
18.5803	100.0
19.5055	0.00217878
19.9034	0.00262636
20.1146	0.00474562
21.311	0.0136786
22.0824	0.00150885
22.1712	0.00834479
23.7199	0.0139732
24.4189	0.00440201
27.3843	0.00174126
30.1714	0.00458106
30.3711	0.0362496
30.381	0.0356062
30.5971	0.00838736
30.6249	0.00161933
30.6958	0.0450732
31.2647	0.0189842
31.3193	0.0196838
32.3586	0.00205029
32.3975	0.0042099
32.3999	0.00236227
33.5378	0.00434997
34.1789	0.00655932
35.117	0.0129047
35.2011	0.0118565
35.4943	0.00664633
35.6643	12.3235
35.6729	12.2309
35.6743	5.55271
35.6871	5.71624
35.7944	12.4402
35.8361	0.00125448
36.0067	11.0716
36.0109	10.8964
36.6591	0.00543077
36.8548	0.0184247
37.228	4.95799
37.2445	4.94268
37.673	9.26493
37.8005	0.00899343
37.9467	0.00532594
38.0628	0.00836262
38.1372	0.00585117
39.0802	0.00135634
39.6068	0.00831097
40.2082	0.00105076
40.2883	0.00734486
40.4413	0.00169485
41.255	0.00938573
41.456	0.00226311
42.4842	0.00759933
42.5695	0.00307903
42.8394	0.0071301
42.9312	0.00371023
43.0061	0.00840977
43.4073	33.9316
43.5798	66.8683
43.6493	0.00956087
44.783	0.0022223
45.2317	0.0131725
45.6735	0.00266144
45.804	0.00752729
45.8518	0.00566827
45.9495	0.00307346
45.9855	0.0011065
46.2212	0.00148011
47.1144	0.00143188
47.3005	1.50675
47.3107	1.44539
47.3227	0.00204877
47.3885	0.0107565
47.3955	0.00335531
47.4854	3.68982
47.5058	3.69293
47.7433	0.00111521
47.7602	2.82883
47.7703	2.78085
47.9469	0.00652114
47.9903	0.0125064
48.1134	3.41888
48.1723	0.00130696
48.4625	0.00679903
48.5176	0.00561252
48.5404	0.00165561
48.995	0.00912451
49.0083	0.0105086
49.1415	0.00754609
49.4554	0.00196859
49.7713	0.00697683
49.8968	0.00515804
50.0448	0.00986755
50.4003	0.004927
50.4943	0.00903635
50.7361	0.00684757
51.037	0.00367309
51.0492	0.00334911
51.2336	0.00321744
51.3312	0.00746571
51.5544	0.00274693
51.6137	0.00432287
51.8671	0.00157892
51.9339	0.00261273
52.001	0.00516539
52.5751	0.00582075
52.9667	0.006371
53.0857	0.00637747
53.2881	0.00204127
53.7069	0.00202259
53.7075	0.00308072
53.7261	0.0032209
54.0997	0.0235442
54.3052	0.00167476
54.3253	0.00685268
54.37	0.00515046
54.3761	0.00451235
54.3952	0.00348883
54.5283	0.00255548
55.0234	0.0014778
55.1978	0.00287442
55.2681	0.00272925
55.4049	0.00318865
55.6328	0.00307999
55.6844	0.0110964
55.7611	0.00189541
55.9977	0.00443954
56.062	0.00336426
56.5117	0.00126534
56.6086	0.00173696
57.2123	0.434354
57.2391	0.437742
57.3929	2.65057
57.4077	2.67481
57.4495	5.30468
57.4584	5.22897
57.4791	4.92438
57.6172	0.00192478
57.844	4.92532
57.8499	4.91992
57.9336	1.29187
58.0236	0.00397364
58.4288	0.00162741
58.6692	0.00238465
58.737	0.00474272
59.3204	0.00163138
59.7709	0.00425361
59.8624	0.0030059
59.9071	0.00188014
60.4801	0.00148461
60.7167	0.00302078
61.0868	0.00135887
61.4217	0.00560862
62.5117	0.00241358
62.5404	0.00154288
62.7131	0.00139436
62.7353	8.76321
62.8554	0.00277097
63.0747	0.00327064
63.1872	17.4825
63.2096	17.4045
63.3245	0.00505558
63.3562	0.0115997
63.7632	0.00210802
63.9242	8.53533
64.1953	0.00177054
64.2168	0.00242987
64.3335	0.0108281
64.428	0.0107772
65.2212	0.00109502
65.2799	0.00267987
65.3462	0.00435966
65.3694	0.00164401
65.399	0.00604576
65.6614	0.00246809
66.042	2.3767
66.053	2.36455
66.1202	0.00637867
66.2747	2.3276
66.302	2.29204
66.3035	0.00102677
66.3332	2.27553
66.3578	2.33777
66.4316	0.00187929
66.499	2.32298
66.5126	2.26525
66.6271	0.00947936
66.6992	2.341
66.7156	2.34296
67.0228	0.00124999
67.0519	0.0293222
67.0736	0.0310616
67.1054	0.00207978
67.1314	2.23128
67.1341	2.23167
67.2381	0.0258159
67.2706	0.0256819
67.737	0.00254355
67.8237	0.0268801
67.8345	0.0274034
67.9209	0.00233985
68.2115	0.0087752
68.2198	0.00336848
68.7565	0.00522316
69.0717	0.00692853
69.3526	0.00862094
69.4125	0.00687312
69.5648	0.00757233
69.7612	0.00133942
70.0252	0.0011824
70.0286	0.00573044
70.0681	0.00108333
70.1354	0.00100625
71.4585	0.0113542
71.5891	0.0113425
71.6049	0.0123807
71.8391	0.012547
71.8548	0.0108249
72.2968	0.0145713
72.5191	0.00111406
73.5062	0.00187558
73.9041	0.00387865
74.201	0.00565333
74.3664	1.33179
74.3976	1.33181
74.4461	0.609456
74.485	0.585458
74.9898	0.00288365
75.0759	0.00303039
75.0849	1.25179
75.126	0.00139119
75.3744	0.00461805
75.4097	1.13669
75.4174	1.15859
75.535	2.04824
75.5557	2.03987
75.5591	0.995712
75.5609	0.00476796
75.59	0.988773
75.7345	0.00697358
75.7865	0.00113996
75.8486	1.92153
76.3207	0.00137973
76.3615	1.87342
76.3718	1.87138
76.4403	0.00141133
76.7167	0.00116277
76.72	0.00195672
77.9339	0.00558577
77.9474	0.00156124
78.1875	0.00136292
78.3755	0.00261652
78.7585	0.00192081
78.9688	0.0023849
79.1187	0.00337874
79.3425	3.82189
79.3832	3.79435
79.5518	0.00147557
79.8036	0.00202222
80.442	7.61014
80.7584	0.00245321
81.0622	0.00103186
81.3959	0.00390548
82.1519	0.00281198
82.1663	0.96623
82.1789	0.941341
82.3074	0.00173045
82.5038	0.00175747
82.6085	0.270452
82.6213	0.00270887
82.6261	0.283963
82.644	1.93455
82.6629	0.0011358
82.6818	1.92371
82.6842	0.666171
82.7703	0.65601
82.7804	0.644567
82.8346	0.00101544
82.9849	1.7314
83.0101	1.72332
83.1725	0.00191377
83.2399	0.542368
83.2474	0.531427
83.527	0.00149448
83.5362	0.00216576
83.7087	0.00392358
83.7204	0.00132043
83.845	1.74029
84.0798	0.00329647
84.2964	0.00161811
84.7888	0.00170113
84.8562	0.00396906
85.1009	0.00242868
85.1019	0.00483386
85.2707	0.00119737
85.29	0.0011533
85.3109	0.00373246
85.8045	0.00144231
85.827	0.00123537
86.0607	0.00320974
86.0887	0.00102706
86.8353	0.00136028
87.0416	0.00228341
87.0652	0.00163702
87.1285	0.00503203
87.1535	0.00411395
87.2106	0.00147809
87.2525	0.0015147
87.2557	0.00345693
87.4127	0.00400397
87.4307	0.00237916
87.4577	0.00430916
87.462	0.00148689
87.4708	0.00371078
87.6021	0.00232904
87.8825	0.00335496
87.9593	0.00641973
87.9677	0.00306577
87.9743	0.0056777
88.2381	0.00959861
88.2581	0.0085418
88.573	0.00217878
88.6185	0.00108931
88.6968	0.00200636
88.7331	0.00559671
88.7381	0.00535731
88.7536	0.00178486
88.8261	0.00213092
89.191	0.00303323
89.2194	0.00338103
89.2414	0.00124381
89.7677	0.0017888
89.8103	0.00122343