File: xy_files/Mn9(FeO6)4.xy
# 2-theta (degrees)	Intensity
7.08518	10.286
14.1976	2.64105
15.4064	3.22905
15.4257	1.71399
15.4567	1.91091
18.405	50.3317
18.415	100.0
18.4834	47.308
21.2847	3.00494
21.3656	1.42448
22.4375	3.02226
22.4808	2.96275
23.2997	0.890973
23.3286	1.73215
23.404	1.14895
25.6398	1.66853
25.7161	1.63815
28.6193	0.330013
29.2172	0.617367
29.2575	1.151
29.3356	0.662248
30.2427	0.566862
30.2886	1.06402
30.3162	0.631114
30.3868	1.17217
31.1004	0.612246
31.1401	0.33477
31.204	0.324608
33.5551	0.606037
33.5622	0.278285
33.6817	0.20343
34.1188	0.673145
34.1336	0.568574
34.161	0.467175
34.1904	0.570094
35.6347	19.1171
35.6611	18.2442
35.6773	18.0451
35.7248	9.54994
35.7461	18.3814
35.7726	17.7514
35.8521	9.07455
35.8858	0.186697
35.9922	0.0142995
35.9985	0.289053
37.3075	5.93252
37.3283	11.7825
37.471	5.89051
38.5239	0.406565
38.5354	0.331542
38.5903	0.274093
38.6679	0.32807
42.0783	0.149136
42.1217	0.419208
42.1316	0.0832435
42.2547	0.146681
42.2754	0.0953619
42.5493	0.305368
42.551	0.311325
42.6366	0.220965
42.6409	0.178061
42.6943	0.265413
42.7202	0.307565
42.775	0.16763
43.3518	72.8192
43.5229	35.9815
43.9616	0.22402
44.0092	0.213053
45.7984	0.178434
45.8906	0.181487
46.2221	0.316803
46.3202	0.110074
46.3545	0.114802
47.422	3.10446
47.4763	2.92855
47.4846	1.82617
47.4891	2.86754
47.5855	1.38667
47.59	3.50079
47.6395	0.0951447
47.6779	2.63324
47.7013	0.261318
47.8629	0.0802765
48.7316	0.0902636
48.754	0.0777807
48.8301	0.11227
48.8712	0.0985511
48.8858	0.154706
49.0029	0.112494
49.3002	0.0569383
49.322	0.0643174
49.3761	0.110135
49.4414	0.104457
49.7557	0.346479
49.7836	0.151855
49.8999	0.143824
49.9459	0.225549
49.9581	0.324637
50.0403	0.122923
50.9992	0.142456
51.0417	0.15568
51.0519	0.148061
51.1794	0.122084
51.2569	0.222184
52.6898	0.216364
52.856	0.218943
53.1092	0.114601
53.1135	0.223181
53.1428	0.20567
53.1649	0.149623
53.2785	0.118218
53.326	0.215062
53.3699	0.229916
53.751	0.107055
53.7814	0.133153
53.8125	0.140175
53.837	0.0365291
53.914	0.117451
53.9657	0.10555
54.0825	0.0374604
56.039	0.0489291
56.1785	0.0769716
56.2712	0.184488
56.2911	0.205768
56.3219	0.157903
56.3517	0.128909
57.2974	7.4278
57.3376	7.49975
57.3411	0.941114
57.3563	7.42145
57.3747	1.88533
57.426	7.03099
57.4533	0.164324
57.4627	0.215651
57.4733	0.357277
57.4957	3.69088
57.5318	0.241781
57.5582	7.41517
57.606	1.18768
57.6427	3.48386
57.6692	0.362657
57.6978	0.18585
59.2504	0.051741
59.3346	0.166139
59.3644	0.174853
59.4307	0.167501
59.4375	0.0981338
59.4677	0.0809236
59.5085	0.108783
59.5924	0.0721067
59.6869	0.0822193
60.5869	0.0443694
60.6772	0.115163
60.8524	0.0398844
61.9945	0.159248
62.0043	0.154158
62.0979	0.214594
62.2752	0.1365
62.3225	0.0591132
62.3421	0.0859464
62.3734	0.0386055
62.4333	0.0340709
62.4531	0.0630692
62.538	0.0486252
62.681	0.0559143
62.8965	11.9896
63.0004	23.7525
63.0629	11.8789
63.223	23.653
63.387	0.0991056
63.5156	0.0531373
63.5895	0.0540364
63.6259	0.0527373
63.7735	0.0732667
64.8459	0.0948455
64.9365	0.0565273
65.0825	0.0518318
65.1922	0.0821256
65.2014	0.0859072
65.3315	0.0847428
65.3679	0.0609174
65.4599	0.0240326
65.527	0.0468569
65.6144	0.0120442
66.1435	2.17985
66.1706	2.12857
66.1906	2.18691
66.2006	2.17017
66.2547	2.07268
66.3055	2.22414
66.3428	2.17614
66.3533	2.05914
66.363	2.26673
66.4444	2.2889
66.4782	2.1118
66.5761	2.32641
67.2399	0.125411
67.2883	0.00386331
67.293	0.0808002
67.2947	0.139436
67.3219	0.14284
67.4295	0.137022
67.508	0.0349595
67.575	0.00515761
67.617	0.101992
67.7886	0.00235327
67.8613	0.0485517
67.9641	0.0638778
68.0346	0.0676103
68.0792	0.0741545
68.1175	0.0637096
68.1297	0.0496186
68.1467	0.0539336
68.2136	0.0712215
68.2956	0.0599043
68.4768	0.0320892
69.1198	0.0147283
69.2064	0.00792864
69.226	0.0181895
69.4539	0.0113287
70.5235	0.0345494
70.5403	0.0168115
70.8207	0.0233554
70.8299	0.0789418
70.8755	0.056904
70.8764	0.0531346
70.885	0.073017
70.8911	0.0751395
71.068	0.0644448
71.1299	0.0681535
71.165	0.0411509
71.4065	0.0103998
71.4176	0.016708
71.5237	0.010057
71.5746	0.0148941
71.6657	0.0140101
71.8225	0.0171132
71.8501	0.0609855
71.8849	0.0617375
71.9496	0.066293
72.0192	0.0660205
73.2088	0.0532282
73.2779	0.0423759
73.2903	0.0542051
73.3123	0.0744168
73.3558	0.0892969
73.4284	0.0814029
73.4766	0.102292
73.6746	0.0587091
73.7415	0.0914502
73.7858	0.106538
73.8577	0.00867207
73.9299	0.0225769
73.9322	0.0995265
74.0213	0.00642009
74.0342	0.0887162
74.4886	1.93863
74.5169	1.83956
74.5659	1.84199
74.5716	0.999414
74.5946	0.144275
74.6333	0.00204666
74.6512	0.00172864
74.6781	1.92071
74.8003	0.136477
74.8256	1.81056
74.9573	0.930384
74.9761	0.0043105
75.4637	2.31995
75.5273	2.39757
75.5663	2.33628
75.6808	1.18665
75.7322	2.26069
75.7961	2.34956
75.9878	1.128
76.0692	0.0489167
76.3254	0.0153961
76.3266	0.0399272
76.3331	0.0112038
76.3417	0.0509342
76.5543	0.00779923
76.6571	0.0285819
78.59	0.0392088
78.6176	0.177703
78.6359	0.0306325
78.725	0.0291147
78.8706	0.166321
78.9057	0.0617064
78.9764	0.033154
78.9789	0.0357366
79.0691	0.0326521
79.3494	0.0270669
79.5384	4.00304
79.5896	8.05174
79.9419	4.02305
80.035	0.0550714
80.0942	0.0490763
80.2285	0.055771
80.2344	0.0777802
80.4022	0.0617822
80.4378	0.0470945
81.52	0.011573
81.5917	0.0513025
81.6168	0.05697
81.6531	0.0729831
81.6865	0.0571299
81.7039	0.011335
81.7331	0.0057982
81.7749	0.0174865
81.7896	0.0624585
81.8327	0.0149156
81.8409	0.0691
81.9996	0.0852462
82.107	0.0588833
82.1299	0.00898981
82.4038	1.80362
82.4503	0.630104
82.5032	0.522176
82.5254	0.506398
82.5342	1.80527
82.5501	1.79359
82.5656	0.0297849
82.5747	0.941384
82.5942	0.0306789
82.6033	0.590328
82.6998	0.790668
82.7323	0.0264847
82.7935	0.314924
82.8002	1.86334
82.8717	0.501069
82.9094	1.5693
82.9277	0.0351159
82.9686	0.283505
83.3856	0.112548
83.4661	0.10581
83.6093	0.102155
83.6141	0.100784
83.7657	0.0989194
83.8176	0.140114
83.8342	0.138224
83.9136	0.0721545
84.0078	0.123306
84.091	0.11026
84.1153	0.0259713
84.166	0.056936
84.1874	0.0558177
84.2318	0.0644069
84.2444	0.0252137
84.2543	0.044179
84.2768	0.0430709
84.2948	0.0250045
84.3121	0.0745676
84.3848	0.0387199
84.398	0.0566001
84.4478	0.0385546
84.5025	0.0482662
84.6864	0.0605099
85.128	0.0766972
85.1612	0.0757881
85.2457	0.0425511
85.2846	0.075217
85.3294	0.0813894
85.4506	0.0705785
85.6397	0.095794
85.7103	0.0346419
86.796	0.0476941
86.7995	0.0839381
86.8319	0.0447835
86.8864	0.0269602
86.9699	0.0782133
87.0638	0.0455913
87.1763	0.0450252
87.3122	0.0627584
87.3619	0.0658618
87.3817	0.0660664
87.3936	0.0755687
87.4353	0.0580283
87.4974	0.0645894
87.5722	0.0634376
87.5803	0.0645126
87.6837	0.0681687
87.7212	0.0647268
87.7909	0.0745838
87.9444	0.068437
89.1432	0.109424
89.3777	0.0136563
89.3942	0.0139632
89.4612	0.0659645
89.4905	0.0843276
89.5308	0.0593434
89.5548	0.0568492
89.5598	0.0281783
89.5833	0.0202061
89.6011	0.0122174
89.6432	0.0491146
89.7357	0.052378
89.836	0.0558403
89.9526	0.0981494